"Time (s)","Acceleration x (m/s^2)","Acceleration y (m/s^2)","Acceleration z (m/s^2)","Absolute acceleration (m/s^2)"
3.315125001E-3,-8.637039185E-1,3.073408813E0,9.143735504E0,9.685025822E0
1.333412500E-2,-8.861572266E-1,3.095413055E0,9.249864807E0,9.794225623E0
2.335212500E-2,-8.991801453E-1,2.927612000E0,9.560319214E0,1.003888143E1
3.337112500E-2,-9.788145447E-1,2.874771881E0,9.977501678E0,1.042942621E1
4.338912500E-2,-9.060658264E-1,2.791395264E0,1.037986496E1,1.078677150E1
5.340812500E-2,-8.419990540E-1,2.850821686E0,1.051233948E1,1.092453331E1
6.342612500E-2,-6.936575317E-1,2.910996552E0,1.054946228E1,1.096568357E1
7.344512500E-2,-6.613247681E-1,2.872227173E0,1.054931259E1,1.095331162E1
8.346312500E-2,-7.520361328E-1,2.964435425E0,1.044033920E1,1.087906790E1
9.348212500E-2,-6.818321228E-1,3.161725159E0,9.996063080E0,1.050631611E1
1.035001250E-1,-4.323010254E-1,3.333717499E0,9.543105011E0,1.011787575E1
1.135191250E-1,-2.424957275E-1,3.377576294E0,9.408834229E0,9.999649361E0
1.235371250E-1,-3.799099731E-1,3.425326996E0,9.405840454E0,1.001733654E1
1.335561250E-1,-5.514532471E-1,3.395239563E0,9.171577606E0,9.795386065E0
1.435741250E-1,-5.272036743E-1,3.194506989E0,9.004524994E0,9.568923084E0
1.535931250E-1,-4.520599365E-1,3.092568970E0,8.779393158E0,9.319124704E0
1.636111250E-1,-3.224295044E-1,3.014132080E0,8.490344238E0,9.015259190E0
1.736301250E-1,-2.406994629E-1,2.922821960E0,8.209228821E0,8.717354087E0
1.836481250E-1,-2.288740540E-1,2.890339508E0,8.072862396E0,8.577735894E0
1.936671250E-1,-2.896476746E-1,2.903212738E0,8.357570343E0,8.852204359E0
2.036857917E-1,-2.338137817E-1,2.806513824E0,8.925639038E0,9.359392126E0
2.137037917E-1,-2.395019531E-2,2.671344910E0,9.010811920E0,9.398477999E0
2.237227917E-1,1.339714050E-1,2.357148285E0,9.063053284E0,9.365523541E0
2.337407917E-1,5.852828979E-2,1.939367065E0,9.026379547E0,9.232556412E0
2.437597917E-1,-1.432521057E-1,1.574276276E0,9.185348969E0,9.320381035E0
2.537777917E-1,-4.848417664E-1,1.135388947E0,9.832153931E0,9.909360752E0
2.637967917E-1,-8.708889771E-1,7.086264038E-1,1.061951660E1,1.067870460E1
2.738147917E-1,-1.036295013E0,4.305047607E-1,1.110825027E1,1.116478687E1
2.838337917E-1,-8.593629456E-1,4.257147217E-1,1.123593475E1,1.127678888E1
2.938517917E-1,-4.209246826E-1,4.960684204E-1,1.107172623E1,1.109082428E1
3.038707917E-1,1.240919495E-1,5.487588501E-1,1.061652283E1,1.063142004E1
3.138887917E-1,6.466552734E-1,6.062393188E-1,1.007719437E1,1.011610278E1
3.239077917E-1,1.009800110E0,6.906637573E-1,9.576635284E0,9.654463012E0
3.339257917E-1,1.178948364E0,7.390132141E-1,9.194180603E0,9.298871799E0
3.439447917E-1,1.225052490E0,6.976991272E-1,8.921747131E0,9.032447595E0
3.539627917E-1,1.194965057E0,5.385800171E-1,8.775201874E0,8.872551936E0
3.639817917E-1,9.972262573E-1,3.373983765E-1,8.776848450E0,8.839760550E0
3.739997917E-1,7.072792053E-1,1.597178650E-1,8.902287598E0,8.931767918E0
3.840187917E-1,5.249583435E-1,-6.376739502E-2,9.247170410E0,9.262278777E0
3.940377917E-1,3.152444458E-1,-3.023712158E-1,9.642797699E0,9.652686407E0
4.040557917E-1,4.879852295E-2,-6.457571411E-1,1.029199768E1,1.031235181E1
4.140747917E-1,-2.871029663E-1,-1.008003845E0,1.122366028E1,1.127249085E1
4.240927917E-1,-5.399272156E-1,-1.230590973E0,1.190175018E1,1.197737588E1
4.341117917E-1,-5.785469055E-1,-1.284927979E0,1.215831665E1,1.223970670E1
4.441297917E-1,-4.745132446E-1,-1.240171051E0,1.207643692E1,1.214921873E1
4.541487917E-1,-3.228785706E-1,-1.119521942E0,1.180819473E1,1.186554014E1
4.641667917E-1,-1.863624573E-1,-9.589059448E-1,1.143427231E1,1.147592327E1
4.741857917E-1,-4.924758911E-2,-7.755372620E-1,1.101200043E1,1.103938571E1
4.842037917E-1,1.308279419E-1,-5.779481506E-1,1.063822769E1,1.065471860E1
4.942227917E-1,2.799179077E-1,-3.767665100E-1,1.030038025E1,1.031106882E1
5.042407917E-1,4.126918030E-1,-2.495310974E-1,9.976902924E0,9.988552059E0
5.142597917E-1,5.779481506E-1,-2.157014465E-1,9.603130188E0,9.622923703E0
5.242777917E-1,6.240522766E-1,-1.716929626E-1,9.328002319E0,9.350430310E0
5.342967917E-1,5.685177612E-1,-1.273851013E-1,9.229806519E0,9.248176457E0
5.443147917E-1,5.444178772E-1,3.382965088E-2,9.023086395E0,9.039558804E0
5.543337917E-1,4.641847229E-1,3.808081055E-1,8.773405609E0,8.793925645E0
5.643517917E-1,3.065625000E-1,9.023236084E-1,8.570727081E0,8.623545162E0
5.743707917E-1,2.317181396E-1,1.350641327E0,8.391549683E0,8.502707296E0
5.843897917E-1,2.664459229E-1,1.445693665E0,8.278534698E0,8.408041410E0
5.944077917E-1,5.255570984E-1,1.156794434E0,8.165519714E0,8.263782175E0
6.044267917E-1,7.699987793E-1,9.669891357E-1,8.205486603E0,8.298070649E0
6.144447917E-1,7.005432129E-1,7.840695190E-1,8.229586487E0,8.296482360E0
6.244637917E-1,2.918930054E-1,6.533912659E-1,8.312963104E0,8.343708842E0
6.344817917E-1,-1.935475159E-1,5.355862427E-1,8.522976379E0,8.541981013E0
6.445007917E-1,-5.771997070E-1,4.583468628E-1,8.710236969E0,8.741365420E0
6.545187917E-1,-8.270301819E-1,4.251159668E-1,8.768166504E0,8.817337827E0
6.645377917E-1,-9.642947388E-1,4.090992737E-1,8.823251953E0,8.885212523E0
6.745557917E-1,-9.509724426E-1,3.766168213E-1,8.838819580E0,8.897804245E0
6.845747917E-1,-7.692503357E-1,2.930905151E-1,8.800648956E0,8.839065006E0
6.945927917E-1,-5.557942200E-1,1.562750244E-1,8.907227325E0,8.925918873E0
7.046117917E-1,-4.839436340E-1,-6.795867920E-2,9.126521301E0,9.139595773E0
7.146297917E-1,-5.727090454E-1,-3.827540588E-1,9.676028595E0,9.700516774E0
7.246487917E-1,-7.840695190E-1,-8.714877319E-1,1.042956161E1,1.049523756E1
7.346667917E-1,-9.422904968E-1,-1.335073700E0,1.105990082E1,1.117997045E1
7.446857917E-1,-9.930349731E-1,-1.605411530E0,1.138861725E1,1.154400569E1
7.547037917E-1,-9.791139221E-1,-1.602417755E0,1.142484192E1,1.157814405E1
7.647227917E-1,-9.613009644E-1,-1.350491638E0,1.137604340E1,1.149618591E1
7.747417917E-1,-1.022373962E0,-1.107397156E0,1.131616791E1,1.141609535E1
7.847597917E-1,-1.152752838E0,-1.022224274E0,1.120345230E1,1.130889584E1
7.947787917E-1,-1.171613617E0,-1.164129181E0,1.100376755E1,1.112702905E1
8.047967917E-1,-1.012644196E0,-1.333576813E0,1.068972061E1,1.082007404E1
8.148157917E-1,-8.322692871E-1,-1.215622101E0,1.028286667E1,1.038786581E1
8.248337917E-1,-6.903643799E-1,-9.084608459E-1,9.777367859E0,9.843720147E0
8.348527917E-1,-5.132826233E-1,-6.286926270E-1,9.238787842E0,9.274368672E0
8.448707917E-1,-3.233276367E-1,-4.264631653E-1,8.749455414E0,8.765807529E0
8.548897917E-1,-1.823208618E-1,-2.231858826E-1,8.410410461E0,8.415346515E0
8.649077917E-1,-8.008346558E-2,-1.975891113E-2,8.241262207E0,8.241674984E0
8.749267917E-1,1.002914429E-2,1.210981750E-1,8.223299561E0,8.224197287E0
8.849447917E-1,6.256988525E-2,2.140548706E-1,8.315507812E0,8.318497740E0
8.949637917E-1,7.589218140E-2,3.306623840E-1,8.538843384E0,8.545580353E0
9.049817917E-1,3.727249146E-2,3.897894287E-1,8.824299774E0,8.832983162E0
9.150007917E-1,-5.987548828E-3,3.766168213E-1,9.118438110E0,9.126214421E0
9.250187917E-1,-5.029541016E-2,3.094065857E-1,9.417366486E0,9.422582108E0
9.350377917E-1,-1.567240906E-1,2.556683350E-1,9.666747894E0,9.671398223E0
9.450567917E-1,-2.276765442E-1,2.203417969E-1,9.791288910E0,9.796413917E0
9.550747917E-1,-2.029779053E-1,2.582130432E-1,9.851613464E0,9.857086885E0
9.650937917E-1,-1.544787598E-1,4.188290405E-1,9.896669769E0,9.906732760E0
9.751117917E-1,-9.550140381E-2,6.087840271E-1,9.920619965E0,9.939740389E0
9.851307917E-1,-2.739303589E-2,7.926017761E-1,9.959239655E0,9.990766860E0
9.951487917E-1,4.355941772E-2,9.741741943E-1,9.962532806E0,1.001014349E1
1.005167792E0,1.258882141E-1,1.159339142E0,9.765841827E0,9.835221486E0
1.015185792E0,2.668949890E-1,1.228645020E0,9.404642944E0,9.488314415E0
1.025204792E0,3.748205566E-1,1.127156067E0,9.027876434E0,9.105686364E0
1.035222792E0,3.841012573E-1,8.872050476E-1,8.843459930E0,8.896148049E0
1.045241792E0,2.616558838E-1,7.261399841E-1,8.806786194E0,8.840544448E0
1.055259792E0,4.625381470E-2,7.732919312E-1,8.903335419E0,8.936973839E0
1.065278792E0,-8.756790161E-2,1.002465363E0,9.016051025E0,9.072032905E0
1.075296792E0,-8.038284302E-2,1.359622650E0,9.137897644E0,9.238842379E0
1.085315792E0,6.286926270E-3,1.681004333E0,9.329648895E0,9.479882046E0
1.095333792E0,5.358856201E-2,1.875449982E0,9.653575287E0,9.834210705E0
1.105352792E0,-4.355941772E-2,1.887874146E0,1.016371445E1,1.033765242E1
1.115371792E0,-1.922003174E-1,1.745520172E0,1.086320984E1,1.100423144E1
1.125389792E0,-2.683918762E-1,1.448687439E0,1.165521286E1,1.174796648E1
1.135408792E0,-3.088078308E-1,9.750723267E-1,1.234512817E1,1.238742580E1
1.145426792E0,-3.152444458E-1,5.578898621E-1,1.262444733E1,1.264069976E1
1.155445792E0,-1.437011719E-1,3.040177917E-1,1.258118729E1,1.258568037E1
1.165463792E0,1.880090332E-1,1.350192261E-1,1.241892471E1,1.242108162E1
1.175482792E0,4.766088867E-1,-6.286926270E-3,1.221744370E1,1.222673816E1
1.185500792E0,6.994953918E-1,-1.290316772E-1,1.203976318E1,1.206075622E1
1.195519792E0,9.241781616E-1,-2.272274780E-1,1.187720123E1,1.191526948E1
1.205537875E0,1.169817352E0,-3.273692322E-1,1.168485123E1,1.174782497E1
1.215556875E0,1.484463043E0,-4.682263184E-1,1.156584869E1,1.167012093E1
1.225574875E0,1.723964996E0,-7.015910339E-1,1.147678391E1,1.162673015E1
1.235593875E0,1.739532623E0,-9.837542725E-1,1.138771912E1,1.156174264E1
1.245611875E0,1.595232697E0,-1.260828094E0,1.132095795E1,1.150211040E1
1.255630875E0,1.283431091E0,-1.537452850E0,1.120824234E1,1.138576537E1
1.265649875E0,8.937913513E-1,-1.689386902E0,1.098849930E1,1.115347515E1
1.275667875E0,6.156697083E-1,-1.714684296E0,1.063927551E1,1.079413613E1
1.285686875E0,5.185217285E-1,-1.633103943E0,1.015712814E1,1.030063811E1
1.295704875E0,6.116281128E-1,-1.467697906E0,9.599986725E0,9.730774440E0
1.305723875E0,8.428971863E-1,-1.244961090E0,9.016350403E0,9.140841229E0
1.315741875E0,1.096320190E0,-1.014440460E0,8.431217194E0,8.562501432E0
1.325760875E0,1.388662262E0,-7.580236816E-1,7.954608307E0,8.110411586E0
1.335778875E0,1.707499237E0,-5.236111450E-1,7.670349426E0,7.875530623E0
1.345797875E0,1.835782471E0,-3.477268982E-1,7.513176270E0,7.742017110E0
1.355815875E0,1.755848694E0,-1.892065430E-1,7.526199188E0,7.730619508E0
1.365834875E0,1.547182617E0,-4.131408691E-2,7.912994843E0,8.062937944E0
1.375852875E0,1.331780548E0,-4.984634399E-2,8.453520813E0,8.557928384E0
1.385871875E0,1.130748596E0,-1.371148682E-1,8.895551605E0,8.968178814E0
1.395889875E0,8.982820129E-1,-1.998344421E-1,9.242679749E0,9.288378401E0
1.405908875E0,7.559280396E-1,-2.447410583E-1,9.558522949E0,9.591490310E0
1.415927875E0,6.921606445E-1,-3.007246399E-1,9.780062256E0,9.809135507E0
1.425945875E0,6.110293579E-1,-3.600013733E-1,1.002510269E1,1.005015631E1
1.435964875E0,5.315446472E-1,-4.487667847E-1,1.027208908E1,1.029561778E1
1.445982875E0,5.240602112E-1,-5.370831299E-1,1.040695862E1,1.043397743E1
1.456001875E0,4.809498596E-1,-6.098318481E-1,1.033166519E1,1.036081625E1
1.466019875E0,4.707710266E-1,-5.140310669E-1,1.025652145E1,1.028017926E1
1.476038875E0,4.369413757E-1,-3.731739807E-1,1.036878799E1,1.038469745E1
1.486056875E0,3.757186890E-1,-3.748205566E-1,1.036220169E1,1.037578329E1
1.496075875E0,3.601510620E-1,-4.379891968E-1,1.014410522E1,1.015994164E1
1.506093875E0,3.860472107E-1,-5.141807556E-1,9.756561127E0,9.777724649E0
1.516112875E0,4.677772522E-1,-4.632865906E-1,9.403146057E0,9.426166018E0
1.526130875E0,6.602769470E-1,-2.957849121E-1,9.214238892E0,9.242599889E0
1.536149875E0,8.687933350E-1,-9.879455566E-2,8.960666199E0,9.003227252E0
1.546168875E0,1.013542328E0,2.604583740E-2,8.591384125E0,8.651001538E0
1.556186875E0,1.200054474E0,3.008743286E-2,8.195607147E0,8.283055747E0
1.566205875E0,1.263672180E0,-6.436614990E-3,7.943830719E0,8.043715267E0
1.576223875E0,1.295555878E0,6.945556641E-2,8.019573212E0,8.123844140E0
1.586242875E0,1.306782532E0,7.379653931E-2,8.181985474E0,8.286013083E0
1.596260875E0,1.136137390E0,-2.993774414E-2,8.200696564E0,8.279077761E0
1.606279875E0,9.098080444E-1,-1.049317932E-1,8.248147888E0,8.298837566E0
1.616297875E0,7.882608032E-1,-6.331832886E-2,8.304281158E0,8.341849307E0
1.626316875E0,8.298742676E-1,6.900650024E-2,8.297096100E0,8.338780300E0
1.636334875E0,9.952803040E-1,2.615061951E-1,8.271499329E0,8.335266613E0
1.646353875E0,1.203197937E0,5.206173706E-1,8.287665710E0,8.390716933E0
1.656371875E0,1.436712341E0,7.831713867E-1,8.367749176E0,8.526237508E0
1.666390875E0,1.564546509E0,1.032702484E0,8.560697937E0,8.763551185E0
1.676409875E0,1.659598846E0,1.188378754E0,8.910670166E0,9.141474454E0
1.686427875E0,1.732048187E0,1.158141632E0,9.351952515E0,9.581247247E0
1.696446875E0,1.849404144E0,1.012943573E0,9.807754669E0,1.003186932E1
1.706464875E0,2.070494385E0,9.527687073E-1,1.021311172E1,1.046433783E1
1.716483875E0,2.388283539E0,9.512718201E-1,1.057326279E1,1.088130058E1
1.726501875E0,2.693049774E0,8.930429077E-1,1.075842773E1,1.112626667E1
1.736520875E0,2.830014954E0,7.560777283E-1,1.071322174E1,1.110647371E1
1.746538875E0,2.888692932E0,5.754034424E-1,1.049512527E1,1.090060964E1
1.756557875E0,2.936892700E0,3.790118408E-1,1.028660889E1,1.070435944E1
1.766575875E0,2.810405731E0,-1.736389160E-2,1.011776001E1,1.050084518E1
1.776594875E0,2.467468872E0,-5.722599792E-1,9.784253540E0,1.010680471E1
1.786612875E0,2.005230103E0,-1.098864899E0,9.288484497E0,9.565793019E0
1.796631875E0,1.562151489E0,-1.517843628E0,8.708740082E0,8.976988380E0
1.806650875E0,1.242715759E0,-1.780098267E0,8.125852203E0,8.410860023E0
1.816668875E0,1.143472137E0,-1.885628815E0,7.611222382E0,7.924255845E0
1.826687875E0,1.190773773E0,-1.845512238E0,7.314689026E0,7.637311906E0
1.836705875E0,1.296903076E0,-1.615290985E0,7.286397858E0,7.575138038E0
1.846724875E0,1.312770081E0,-1.256936188E0,7.606132965E0,7.820262946E0
1.856742875E0,1.120270386E0,-9.669891357E-1,8.147257690E0,8.280572541E0
1.866761875E0,8.732839966E-1,-7.617658997E-1,8.853938141E0,8.929453109E0
1.876779875E0,6.556365967E-1,-6.370751953E-1,9.661658478E0,9.704811626E0
1.886798875E0,4.412823486E-1,-6.405180359E-1,1.055335419E1,1.058197893E1
1.896816875E0,2.309696960E-1,-7.400610352E-1,1.147603546E1,1.150219228E1
1.906835875E0,5.673202515E-2,-8.214916992E-1,1.235336105E1,1.238077528E1
1.916853875E0,-1.636097717E-1,-8.855584717E-1,1.297995804E1,1.301116031E1
1.926872875E0,-2.472857666E-1,-9.440867615E-1,1.322200470E1,1.325797339E1
1.936891875E0,-1.580712891E-1,-9.707313538E-1,1.314162186E1,1.317837361E1
1.946909875E0,-7.768844604E-2,-9.883946228E-1,1.289972488E1,1.293776880E1
1.956928875E0,8.607101440E-2,-9.533674622E-1,1.252969437E1,1.256620701E1
1.966946875E0,4.423301697E-1,-8.843609619E-1,1.207029968E1,1.211073428E1
1.976965875E0,8.108638000E-1,-8.810678101E-1,1.165266815E1,1.171402816E1
1.986983875E0,1.120869141E0,-1.006956024E0,1.136526581E1,1.146470998E1
1.997002875E0,1.084794159E0,-1.302441559E0,1.113399673E1,1.126228288E1
2.007020875E0,8.059240723E-1,-1.618584137E0,1.093176727E1,1.108029169E1
2.017039875E0,5.343887329E-1,-1.773811340E0,1.078297668E1,1.094095810E1
2.027057875E0,3.706292725E-1,-1.813778229E0,1.067205734E1,1.083143414E1
2.037076875E0,3.561094666E-1,-1.831441498E0,1.051189041E1,1.067618059E1
2.047095875E0,5.227130127E-1,-1.805096283E0,1.034738251E1,1.051664995E1
2.057113875E0,7.420069885E-1,-1.770069122E0,1.019350250E1,1.037261839E1
2.067132875E0,8.695417786E-1,-1.832489319E0,1.002869522E1,1.023175683E1
2.077150875E0,8.708889771E-1,-1.949695587E0,9.917476501E0,1.014475730E1
2.087169875E0,8.276289368E-1,-2.157613220E0,9.856403503E0,1.012368285E1
2.097187875E0,7.081773376E-1,-2.226170654E0,9.748178558E0,1.002418755E1
2.107206875E0,5.860313416E-1,-2.020498352E0,9.663155365E0,9.889510500E0
2.117224875E0,5.542973328E-1,-1.617087250E0,9.564211121E0,9.715778459E0
2.127243875E0,4.403842163E-1,-8.958869934E-1,9.376950531E0,9.429939185E0
2.137261875E0,6.566844177E-1,-7.005432129E-1,8.800648956E0,8.852876215E0
2.147280875E0,1.032103729E0,-7.092251587E-1,8.373437347E0,8.466563142E0
2.157298875E0,1.028211823E0,-7.542814636E-1,8.258476410E0,8.356350441E0
2.167317875E0,7.632627869E-1,-8.990304565E-1,8.385711823E0,8.468234091E0
2.177336875E0,5.813909912E-1,-1.155297546E0,8.664432220E0,8.760428848E0
2.187354875E0,5.037025452E-1,-1.388063507E0,8.800499268E0,8.923520825E0
2.197373875E0,5.352868652E-1,-1.577419739E0,8.899742889E0,9.054292273E0
2.207391375E0,6.566844177E-1,-1.713037720E0,9.040001221E0,9.224280716E0
2.217410375E0,7.197033691E-1,-1.761087799E0,9.140292664E0,9.336185150E0
2.227428375E0,7.423063660E-1,-1.876198425E0,9.143735504E0,9.363708573E0
2.237447375E0,7.535330200E-1,-1.991458740E0,9.060358887E0,9.307192008E0
2.247465375E0,8.005352783E-1,-2.053579559E0,8.953481140E0,9.220784688E0
2.257484375E0,9.409432983E-1,-2.001038818E0,8.774004364E0,9.048352514E0
2.267502375E0,1.197958832E0,-1.898352356E0,8.563092957E0,8.852423850E0
2.277521375E0,1.459764404E0,-1.802252197E0,8.352031860E0,8.668071371E0
2.287540375E0,1.659449158E0,-1.631906433E0,8.165519714E0,8.490736265E0
2.297558375E0,1.910776520E0,-1.561852112E0,8.021519165E0,8.392569252E0
2.307577375E0,2.179168396E0,-1.593436432E0,7.881709900E0,8.331216328E0
2.317595375E0,2.404599609E0,-1.613345032E0,7.796836395E0,8.317189384E0
2.327614375E0,2.598745880E0,-1.672771454E0,7.835605774E0,8.423085084E0
2.337632375E0,2.762954407E0,-1.815275116E0,7.958200836E0,8.617546133E0
2.347651375E0,2.826422424E0,-2.040107574E0,8.201894073E0,8.911889195E0
2.357669375E0,2.754422150E0,-2.093097382E0,8.416547699E0,9.099789734E0
2.367688375E0,2.692001953E0,-2.039957886E0,8.558751984E0,9.201116139E0
2.377706375E0,2.687960358E0,-2.043101349E0,8.732540588E0,9.362513505E0
2.387725375E0,2.717898102E0,-2.011517029E0,8.894653473E0,9.515672927E0
2.397744375E0,2.628833313E0,-1.908680878E0,8.950487366E0,9.521819751E0
2.407762375E0,2.459086304E0,-1.782493286E0,8.921597443E0,9.424398585E0
2.417781375E0,2.396516418E0,-1.604363708E0,8.942703552E0,9.396234388E0
2.427799375E0,2.426154785E0,-1.311871948E0,9.066346436E0,9.476596052E0
2.437818375E0,2.533032532E0,-9.810598755E-1,9.263486481E0,9.653544119E0
2.447836375E0,2.638263702E0,-7.331753540E-1,9.465266876E0,9.853388174E0
2.457855375E0,2.688110046E0,-6.032455444E-1,9.654772797E0,1.004014335E1
2.467873375E0,2.667003937E0,-5.616320801E-1,9.820777588E0,1.019195825E1
2.477892375E0,2.612966309E0,-6.559359741E-1,1.004620880E1,1.040116129E1
2.487910375E0,2.490820312E0,-7.812254333E-1,1.027822632E1,1.060454786E1
2.497929375E0,2.369273071E0,-8.244854736E-1,1.041818527E1,1.071596079E1
2.507947375E0,2.241139526E0,-8.264314270E-1,1.031729507E1,1.059019702E1
2.517966375E0,2.200424194E0,-8.702902222E-1,1.006596771E1,1.034035675E1
2.527985375E0,2.247426453E0,-9.427395630E-1,9.935439148E0,1.022998703E1
2.538003375E0,2.313588867E0,-1.033001862E0,9.940528564E0,1.025835730E1
2.548022375E0,2.376607819E0,-1.129551086E0,1.000983444E1,1.034992444E1
2.558040375E0,2.428699493E0,-1.220861206E0,1.015608032E1,1.051356509E1
2.568059375E0,2.437231750E0,-1.337468719E0,1.044902115E1,1.081253736E1
2.578077375E0,2.433639221E0,-1.477128296E0,1.073223221E1,1.110339210E1
2.588096375E0,2.370021515E0,-1.689087524E0,1.095646591E1,1.133640878E1
2.598114375E0,2.220632172E0,-1.966909790E0,1.118608841E1,1.157274882E1
2.608133375E0,1.975442047E0,-2.272424469E0,1.133637589E1,1.172943743E1
2.618151375E0,1.840422821E0,-2.478545837E0,1.120345230E1,1.162100207E1
2.628170375E0,1.901196442E0,-2.494412842E0,1.092143875E1,1.136285474E1
2.638189375E0,2.000739441E0,-2.395618286E0,1.064631088E1,1.109440763E1
2.648207375E0,2.088906097E0,-2.261497192E0,1.036609360E1,1.081359305E1
2.658226375E0,2.131118317E0,-2.159708862E0,1.010129425E1,1.054713957E1
2.668244375E0,2.111359406E0,-2.072140961E0,9.935139771E0,1.036622443E1
2.678263375E0,2.033670959E0,-1.995350647E0,9.837542725E0,1.024180104E1
2.688281375E0,1.920206909E0,-2.009421387E0,9.840536499E0,1.022551356E1
2.698300375E0,1.748963013E0,-2.055824890E0,9.897567902E0,1.025900278E1
2.708318375E0,1.632954254E0,-2.075134735E0,9.998757477E0,1.034156056E1
2.718337375E0,1.553020477E0,-2.156266022E0,1.012793884E1,1.047074501E1
2.728355375E0,1.360071716E0,-2.426005096E0,1.027628036E1,1.064599615E1
2.738374375E0,1.152154083E0,-2.761307831E0,1.028062134E1,1.070716840E1
2.748393375E0,1.102457428E0,-2.921325073E0,1.007779312E1,1.055042496E1
2.758411375E0,1.190773773E0,-2.846331024E0,9.705367584E0,1.018399246E1
2.768430375E0,1.357527008E0,-2.621648254E0,9.313332825E0,9.770060770E0
2.778448375E0,1.508113861E0,-2.318079529E0,9.026978302E0,9.441093019E0
2.788467375E0,1.541344757E0,-2.024989014E0,8.915759583E0,9.271844105E0
2.798485375E0,1.478026428E0,-1.851200409E0,8.931776276E0,9.240569924E0
2.808504375E0,1.307980042E0,-1.789528656E0,9.004524994E0,9.273332463E0
2.818522375E0,1.130149841E0,-1.745819550E0,9.076375580E0,9.311590532E0
2.828541375E0,1.044677582E0,-1.657353516E0,9.210496674E0,9.416550372E0
2.838559375E0,1.020428009E0,-1.641486511E0,9.330696716E0,9.528780221E0
2.848578375E0,1.014440460E0,-1.713486786E0,9.371711426E0,9.580923831E0
2.858597375E0,1.027463379E0,-1.821861420E0,9.366472321E0,9.597169570E0
2.868615375E0,1.025068359E0,-1.883832550E0,9.317673798E0,9.561309284E0
2.878634375E0,1.041833496E0,-1.894909515E0,9.210047607E0,9.460500834E0
2.888652375E0,1.026714935E0,-1.877246246E0,9.092541962E0,9.340905542E0
2.898671375E0,9.834548950E-1,-1.823657684E0,8.938512268E0,9.175506114E0
2.908689375E0,9.300160217E-1,-1.711391144E0,8.707392883E0,8.922582601E0
2.918708375E0,9.072633362E-1,-1.582509155E0,8.425828400E0,8.621023501E0
2.928726375E0,9.472302246E-1,-1.477577362E0,8.199948120E0,8.385680004E0
2.938745375E0,9.773176575E-1,-1.432970123E0,8.030201111E0,8.215393056E0
2.948763375E0,9.907896423E-1,-1.424737244E0,7.892637177E0,8.081167114E0
2.958782375E0,9.810598755E-1,-1.456022186E0,7.889793091E0,8.082778860E0
2.968801375E0,9.107061768E-1,-1.472637634E0,7.979456635E0,8.165156185E0
2.978819375E0,8.596623230E-1,-1.456920319E0,8.180638275E0,8.353710476E0
2.988838375E0,8.099656677E-1,-1.362167358E0,8.423134003E0,8.570923563E0
2.998856375E0,7.400610352E-1,-1.211730194E0,8.643475800E0,8.759318141E0
3.008875375E0,7.499404907E-1,-1.026565247E0,8.782985687E0,8.874518834E0
3.018893375E0,8.008346558E-1,-8.457412720E-1,8.822054443E0,8.898609950E0
3.028912375E0,8.384065247E-1,-6.876699829E-1,8.791068878E0,8.857691998E0
3.038930375E0,9.038204956E-1,-5.342390442E-1,8.756640472E0,8.819356848E0
3.048949375E0,9.782157898E-1,-3.879931641E-1,8.727301483E0,8.790519666E0
3.058968375E0,1.032253418E0,-3.020718384E-1,8.784183197E0,8.849783554E0
3.068986375E0,1.090781708E0,-3.303630066E-1,8.924740906E0,8.997218719E0
3.079005375E0,1.112486572E0,-4.092489624E-1,9.103618927E0,9.180467780E0
3.089023375E0,1.107696533E0,-4.926255798E-1,9.292975159E0,9.371715898E0
3.099042375E0,1.119821320E0,-5.031037903E-1,9.469607849E0,9.548852603E0
3.109060375E0,1.191821594E0,-4.296066284E-1,9.600435791E0,9.683665006E0
3.119079375E0,1.299896851E0,-2.776725769E-1,9.682764587E0,9.773574778E0
3.129097375E0,1.348545685E0,-6.990463257E-2,9.800419922E0,9.893012320E0
3.139116375E0,1.385219421E0,9.131011963E-2,9.954150238E0,1.005048642E1
3.149134375E0,1.393003235E0,1.622625732E-1,1.007839188E1,1.017549851E1
3.159153375E0,1.330133972E0,1.887574768E-1,1.017284546E1,1.026117296E1
3.169172375E0,1.265618134E0,2.140548706E-1,1.028915359E1,1.036890980E1
3.179190375E0,1.275796967E0,2.978805542E-1,1.044228516E1,1.052414890E1
3.189209375E0,1.320553894E0,4.366419983E-1,1.058613602E1,1.067711546E1
3.199231875E0,1.389710083E0,5.510041809E-1,1.067969147E1,1.078381702E1
3.209250875E0,1.409169617E0,6.176156616E-1,1.073328003E1,1.084299351E1
3.219268875E0,1.353186035E0,7.033872986E-1,1.070977890E1,1.081782003E1
3.229287875E0,1.378782806E0,7.319778442E-1,1.059017761E1,1.070461094E1
3.239305875E0,1.403032379E0,7.273374939E-1,1.043854294E1,1.055749489E1
3.249324875E0,1.417851562E0,6.985972595E-1,1.030861313E1,1.042908653E1
3.259342875E0,1.468296661E0,5.698649597E-1,1.020353165E1,1.032437404E1
3.269361875E0,1.600771179E0,3.736230469E-1,1.015293686E1,1.028514411E1
3.279380875E0,1.683099976E0,1.160087585E-1,1.011386810E1,1.025361456E1
3.289398875E0,1.672172699E0,-1.839674377E-1,1.007135651E1,1.021088769E1
3.299417875E0,1.627715149E0,-5.054988098E-1,1.002689896E1,1.017072703E1
3.309435875E0,1.544637909E0,-9.138496399E-1,1.003273682E1,1.019199860E1
3.319454875E0,1.281036072E0,-1.399888916E0,1.014934433E1,1.032520860E1
3.329472875E0,9.969268799E-1,-1.926493835E0,1.065005310E1,1.086871072E1
3.339491875E0,9.312135315E-1,-2.062111816E0,1.119926102E1,1.142553767E1
3.349509875E0,1.039588165E0,-2.012265472E0,1.162168259E1,1.184033201E1
3.359528875E0,1.363215179E0,-1.977388000E0,1.184756287E1,1.208855512E1
3.369546875E0,1.545386353E0,-1.892664185E0,1.182226547E1,1.207213144E1
3.379565875E0,1.346749420E0,-1.708996124E0,1.154728729E1,1.175049980E1
3.389584875E0,9.574090576E-1,-1.486858063E0,1.114133148E1,1.128080876E1
3.399602875E0,5.763015747E-1,-1.247056732E0,1.055904236E1,1.064803501E1
3.409621875E0,4.152365112E-1,-7.444020081E-1,1.006252487E1,1.009856240E1
3.419639875E0,4.694238281E-1,-1.724414062E-1,9.607770538E0,9.620776969E0
3.429658875E0,5.541476440E-1,4.354444885E-1,9.202712860E0,9.229659555E0
3.439676875E0,5.716612244E-1,9.822573853E-1,8.945397949E0,9.017303954E0
3.449695875E0,6.562353516E-1,1.203347626E0,8.601862335E0,8.710380358E0
3.459713875E0,9.810598755E-1,8.869056702E-1,8.117020569E0,8.224056363E0
3.469732875E0,1.290316772E0,5.086422729E-1,7.810757446E0,7.932941839E0
3.479751875E0,1.442400513E0,3.174897766E-1,7.725883942E0,7.865786781E0
3.489769875E0,1.444196777E0,8.921447754E-2,7.471113739E0,7.609941134E0
3.499788875E0,1.276695099E0,-5.269042969E-2,6.892566833E0,7.010007433E0
3.509806875E0,1.147813110E0,2.306703186E-1,6.278094635E0,6.386325702E0
3.519825875E0,1.371148682E0,8.247848511E-1,5.711373138E0,5.931281639E0
3.529843875E0,2.005828857E0,1.421294403E0,5.165757751E0,5.720881080E0
3.539862875E0,2.681374054E0,1.791624298E0,4.646038513E0,5.655559947E0
3.549880875E0,2.975961456E0,1.914069672E0,4.381239166E0,5.631630841E0
3.559899875E0,3.099005585E0,1.829944611E0,4.717440033E0,5.933529587E0
3.569917875E0,3.242108002E0,1.586850128E0,5.678142242E0,6.728347267E0
3.579936875E0,2.982697449E0,1.156794434E0,6.607110443E0,7.340883178E0
3.589955875E0,2.559527435E0,7.114704895E-1,7.415878601E0,7.877348943E0
3.599973875E0,2.228116608E0,5.301974487E-1,7.978408813E0,8.300639743E0
3.609992875E0,2.143991547E0,6.650669861E-1,8.372838593E0,8.668531591E0
3.620010875E0,2.143841858E0,6.987469482E-1,8.737480316E0,9.023739108E0
3.630029875E0,2.108215942E0,7.717950439E-1,9.463470612E0,9.726125542E0
3.640047875E0,2.009571075E0,1.225800934E0,1.168515060E1,1.191988710E1
3.650066875E0,1.916015625E0,1.411564636E0,1.434856201E1,1.454458189E1
3.660084875E0,2.137105865E0,9.261241150E-1,1.649899017E1,1.666258096E1
3.670103875E0,2.424957275E0,1.815724182E-1,1.746268616E1,1.763118811E1
3.680121875E0,2.434537354E0,-3.595523071E-1,1.687785233E1,1.705632285E1
3.690140875E0,2.063309326E0,-5.514532471E-1,1.506631943E1,1.521694211E1
3.700159875E0,1.774110718E0,-5.041516113E-1,1.284194504E1,1.297371150E1
3.710177875E0,1.768871613E0,-3.384461975E-1,1.110795090E1,1.125300074E1
3.720196875E0,1.998194733E0,-1.863624573E-1,9.679022369E0,9.884886807E0
3.730214875E0,2.111359406E0,1.320254517E-1,8.356372833E0,8.619990498E0
3.740233875E0,2.076781311E0,7.694000244E-1,7.371870117E0,7.697367474E0
3.750251875E0,2.094145203E0,1.737736359E0,6.801855469E0,7.326009118E0
3.760270875E0,2.516267395E0,2.712808685E0,7.361242218E0,8.238860331E0
3.770288875E0,2.752326508E0,3.049159241E0,9.051527252E0,9.939960708E0
3.780307875E0,2.848276978E0,2.931204529E0,1.092518097E1,1.166465691E1
3.790326875E0,3.455115051E0,2.694846039E0,1.223151443E1,1.299268873E1
3.800344875E0,4.528532867E0,2.262844391E0,1.257505005E1,1.355580903E1
3.810363875E0,5.166655884E0,1.399290161E0,1.180699722E1,1.296370045E1
3.820381875E0,4.450994110E0,3.625460815E-1,1.016176849E1,1.109974446E1
3.830400875E0,2.481838989E0,-2.269281006E-1,8.379724274E0,8.742471049E0
3.840418875E0,5.349874878E-1,-2.315684509E-1,7.028933258E0,7.053065880E0
3.850437875E0,1.805245972E-1,-6.571334839E-1,5.918991394E0,5.958093040E0
3.860455875E0,1.593286743E0,-1.810485077E0,5.737718353E0,6.223972265E0
3.870474875E0,3.825145569E0,-2.795287170E0,6.825356598E0,8.308481310E0
3.880492875E0,4.740342407E0,-3.509152679E0,8.428373108E0,1.028700500E1
3.890511875E0,3.825894012E0,-4.705614624E0,1.013662079E1,1.181233910E1
3.900530875E0,1.642234955E0,-5.999823303E0,1.203287750E1,1.354566190E1
3.910548875E0,-1.216370544E0,-6.709647217E0,1.325897781E1,1.490970877E1
3.920567875E0,-4.109254761E0,-6.441554718E0,1.357077942E1,1.557387736E1
3.930585875E0,-5.559139709E0,-5.156477051E0,1.317979248E1,1.520526947E1
3.940604875E0,-5.288352814E0,-3.764222260E0,1.193947174E1,1.358996064E1
3.950622875E0,-4.027524719E0,-2.782413940E0,1.023870850E1,1.134874153E1
3.960641875E0,-2.793191528E0,-1.911075897E0,8.901688843E0,9.523349949E0
3.970659875E0,-1.763482819E0,-9.903405762E-1,8.057743835E0,8.307700153E0
3.980678875E0,-1.476529541E0,-5.456153870E-1,7.129823456E0,7.301521632E0
3.990697875E0,-1.607806549E0,-4.023632813E-1,6.490652618E0,6.698918534E0
4.000715875E0,-2.083367615E0,-1.011746063E0,6.516548767E0,6.915884509E0
4.010734875E0,-3.075205078E0,-2.318977661E0,7.332651672E0,8.282652004E0
4.020752875E0,-4.114044800E0,-3.276087341E0,8.880433044E0,1.032086256E1
4.030771875E0,-4.689148865E0,-4.195325775E0,1.014305740E1,1.193610024E1
4.040789875E0,-4.507576447E0,-4.676874390E0,1.118249588E1,1.293211559E1
4.050808875E0,-3.534899139E0,-4.316124573E0,1.169517975E1,1.295768778E1
4.060826875E0,-1.889071655E0,-3.269950104E0,1.177211975E1,1.236300808E1
4.070845875E0,-1.616638184E-1,-1.670526123E0,1.221310272E1,1.232788185E1
4.080863875E0,1.884580994E0,-8.265811157E-1,1.217807556E1,1.235072493E1
4.090882875E0,4.917274475E0,-1.113384705E0,1.106918152E1,1.216330519E1
4.100901875E0,7.294481049E0,-1.509760437E0,1.034513718E1,1.274796821E1
4.110919875E0,8.005951538E0,-1.819466400E0,1.056488022E1,1.337992571E1
4.120938875E0,7.733967133E0,-2.360142059E0,1.201641174E1,1.448373810E1
4.130956875E0,7.232060852E0,-2.938688965E0,1.403481445E1,1.605972023E1
4.140975875E0,6.543193359E0,-3.295995941E0,1.558079956E1,1.721738318E1
4.150993875E0,5.861061859E0,-3.404520264E0,1.517708908E1,1.662187827E1
4.161012875E0,5.788612518E0,-3.399730225E0,1.287622375E1,1.452113421E1
4.171030875E0,5.983357544E0,-3.172053680E0,1.005878265E1,1.212607111E1
4.181049875E0,5.309758301E0,-2.949616241E0,7.864645386E0,9.937123136E0
4.191068875E0,3.965703278E0,-2.671943665E0,7.058272247E0,8.525566993E0
4.201086042E0,3.346890106E0,-1.772015076E0,7.324119415E0,8.245267492E0
4.211105042E0,3.845652924E0,-3.396437073E-1,8.048014069E0,8.926081711E0
4.221123042E0,5.369035034E0,1.638492737E0,9.016799469E0,1.062138731E1
4.231142042E0,7.471862183E0,3.423680420E0,1.036429733E1,1.322758373E1
4.241160042E0,8.410260773E0,4.069587250E0,1.193468170E1,1.515686821E1
4.251179042E0,7.252119141E0,3.345542908E0,1.356958191E1,1.574545784E1
4.261197042E0,5.226830750E0,1.920356598E0,1.567210968E1,1.663197375E1
4.271216042E0,2.942281494E0,-9.879455566E-2,1.885464157E1,1.908308910E1
4.281234042E0,9.779164124E-1,-2.163301392E0,2.192086533E1,2.204904828E1
4.291253042E0,2.844085693E-3,-2.862796783E0,2.378613647E1,2.395779418E1
4.301272042E0,2.535726929E-1,-2.117197266E0,2.403282349E1,2.412723416E1
4.311290042E0,1.747915192E0,-2.930905151E-1,2.267335052E1,2.274251379E1
4.321309042E0,3.254532166E0,1.936672668E0,2.005649231E1,2.041091777E1
4.331327042E0,4.700674896E0,3.715124359E0,1.687919952E1,1.791105441E1
4.341346042E0,6.067781982E0,4.420158234E0,1.390997406E1,1.580642766E1
4.351364042E0,6.771768036E0,3.833228760E0,1.163156204E1,1.399441748E1
4.361383042E0,6.963668976E0,2.170636139E0,1.015578094E1,1.250376877E1
4.371401042E0,6.816824341E0,2.017803955E-1,9.281748505E0,1.151784115E1
4.381420042E0,6.429729309E0,-1.505120087E0,8.883277130E0,1.106884899E1
4.391439042E0,5.831273804E0,-2.917882233E0,9.319020996E0,1.137373919E1
4.401457042E0,4.905449066E0,-3.973187714E0,1.050440598E1,1.225529257E1
4.411476042E0,4.350852356E0,-4.099225616E0,1.144774429E1,1.291450411E1
4.421494042E0,4.603826294E0,-3.043770447E0,1.191162964E1,1.312808728E1
4.431513042E0,5.227728882E0,-1.321002960E0,1.187450684E1,1.304139987E1
4.441531042E0,5.788013763E0,4.188290405E-1,1.170505920E1,1.306464435E1
4.451550042E0,6.378535767E0,1.621278534E0,1.164189056E1,1.337340191E1
4.461568042E0,6.469696198E0,2.046693878E0,1.180385376E1,1.361531815E1
4.471587042E0,5.918392639E0,1.713337097E0,1.201237015E1,1.350036785E1
4.481605042E0,5.160668335E0,9.768685913E-1,1.212224167E1,1.321118893E1
4.491624042E0,4.364923096E0,3.740721130E-1,1.224304047E1,1.300325050E1
4.501643042E0,3.626059570E0,2.411485291E-1,1.244092896E1,1.296083230E1
4.511661042E0,3.178190918E0,4.511618042E-1,1.262160324E1,1.302341402E1
4.521680042E0,3.213667145E0,9.833052063E-1,1.269225632E1,1.312965788E1
4.531698042E0,3.707190857E0,1.792073364E0,1.260723312E1,1.326262108E1
4.541717042E0,4.588857422E0,2.613265686E0,1.253807693E1,1.360478384E1
4.551735042E0,5.396577759E0,2.993475037E0,1.228839615E1,1.375094994E1
4.561754042E0,5.630990295E0,3.064427490E0,1.201895645E1,1.362182373E1
4.571772042E0,5.304219818E0,2.890040131E0,1.179217804E1,1.324924687E1
4.581791042E0,4.720733185E0,2.411036224E0,1.141136993E1,1.258243940E1
4.591810042E0,4.154011688E0,1.729054413E0,1.071816147E1,1.162430331E1
4.601828042E0,3.548670502E0,1.085392914E0,1.009665390E1,1.075702376E1
4.611847042E0,2.935695190E0,6.234535217E-1,1.012105316E1,1.055664329E1
4.621865042E0,1.828896790E0,2.704875183E-1,9.782008209E0,9.955185160E0
4.631884042E0,1.983375549E0,-7.961943054E-1,8.943152618E0,9.194981386E0
4.641902042E0,2.897075500E0,-1.632205811E0,8.026009827E0,8.687575957E0
4.651921042E0,2.896027679E0,-1.401385803E0,7.331154785E0,8.006040780E0
4.661939042E0,2.670746155E0,-5.794450378E-1,7.352709961E0,7.844168875E0
4.671958042E0,3.056194611E0,4.462220764E-1,8.222102051E0,8.783074733E0
4.681977042E0,3.749552765E0,1.282532959E0,8.934320984E0,9.773746885E0
4.691995042E0,4.387376404E0,1.888173523E0,9.434730377E0,1.057489519E1
4.702014042E0,4.750221863E0,2.278861084E0,9.787097626E0,1.111508414E1
4.712032042E0,4.575684814E0,2.007026367E0,9.633217621E0,1.085190896E1
4.722051042E0,4.462969208E0,1.440903625E0,9.437275085E0,1.053833281E1
4.732069042E0,4.312082977E0,1.171763306E0,9.327553253E0,1.034264659E1
4.742088042E0,3.872596893E0,5.304968262E-1,9.787846069E0,1.053946698E1
4.752106042E0,3.055595856E0,-4.815486145E-1,1.056398209E1,1.100755525E1
4.762125042E0,1.892664185E0,-8.707392883E-1,1.090572144E1,1.110293316E1
4.772143042E0,1.299447784E0,-1.662143555E0,1.101679047E1,1.121699416E1
4.782162042E0,1.034199371E0,-2.044747925E0,1.095811249E1,1.119512357E1
4.792181042E0,1.077309723E0,-1.812431030E0,1.086979614E1,1.107239679E1
4.802199042E0,1.292711792E0,-1.085542603E0,1.091859467E1,1.104831281E1
4.812218042E0,1.279539185E0,-4.355941772E-2,1.096739319E1,1.104186720E1
4.822236042E0,9.857002258E-1,1.063688049E0,1.103310654E1,1.112800418E1
4.832255042E0,8.530760193E-1,1.602118378E0,1.090362579E1,1.105366805E1
4.842273042E0,1.069525909E0,1.480720825E0,1.049437683E1,1.065215306E1
4.852292042E0,1.427581329E0,1.181642761E0,1.005998016E1,1.022924577E1
4.862310042E0,1.696122894E0,6.858737183E-1,9.856403503E0,1.002476661E1
4.872329042E0,1.611848145E0,-8.607101440E-2,9.443262634E0,9.580222954E0
4.882348042E0,1.484013977E0,-4.388873291E-1,8.735534363E0,8.871554552E0
4.892366042E0,1.503772888E0,-3.266207886E-1,7.957901459E0,8.105319837E0
4.902385042E0,1.712289276E0,-2.354603577E-1,7.280859375E0,7.483200477E0
4.912403042E0,2.218985596E0,-2.740800476E-1,6.916367340E0,7.268779411E0
4.922422042E0,2.748284912E0,-4.077520752E-1,6.706952820E0,7.259652047E0
4.932440042E0,2.980452118E0,-5.269042969E-1,6.672075348E0,7.326480220E0
4.942459042E0,2.813100128E0,-5.786965942E-1,6.884034576E0,7.459112154E0
4.952477042E0,2.328108673E0,-5.339396667E-1,7.028184814E0,7.422975370E0
4.962496042E0,1.788031769E0,-4.114942932E-1,7.073989563E0,7.308058121E0
4.972515042E0,1.228495331E0,-2.707868958E-1,7.003037109E0,7.115128606E0
4.982533042E0,8.885522461E-1,-5.478607178E-2,6.921756134E0,6.978770278E0
4.992552042E0,8.818162537E-1,1.525328064E-1,6.808890839E0,6.867449353E0
5.002570042E0,1.158890076E0,3.510200500E-1,6.819818115E0,6.926482542E0
5.012589042E0,1.526226196E0,4.337979126E-1,6.979386292E0,7.157470226E0
5.022607042E0,1.681004333E0,2.481838989E-1,7.240144043E0,7.436871424E0
5.032626042E0,1.565594330E0,-9.400451660E-2,7.413034515E0,7.577136872E0
5.042644042E0,1.320703583E0,-4.093986511E-1,7.500153351E0,7.626543483E0
5.052663042E0,1.074465637E0,-6.204597473E-1,7.639812927E0,7.739908802E0
5.062682042E0,9.090596008E-1,-6.661148071E-1,7.288194122E0,7.374813344E0
5.072700042E0,8.057743835E-1,-9.276210022E-1,6.915469208E0,7.023778716E0
5.082719042E0,1.118623810E0,-1.031654663E0,6.877298584E0,7.043640137E0
5.092737042E0,1.545386353E0,-9.746232605E-1,7.254813538E0,7.481338713E0
5.102756042E0,1.465003510E0,-8.515791321E-1,7.511829071E0,7.700584283E0
5.112774042E0,9.786648560E-1,-8.783734131E-1,7.807613983E0,7.917585545E0
5.122793042E0,6.239025879E-1,-9.304650879E-1,8.143066406E0,8.219765825E0
5.132811042E0,3.287164307E-1,-8.469387817E-1,8.306975555E0,8.356506607E0
5.142830042E0,-3.209326172E-1,-1.053359528E0,8.384813690E0,8.456811731E0
5.152849042E0,1.561253357E-1,-7.972421265E-1,9.278605042E0,9.314101226E0
5.162867042E0,4.231700134E-1,-9.135502625E-1,9.932295685E0,9.983193102E0
5.172886042E0,3.899391174E-1,-1.053509216E0,1.003842499E1,1.010108462E1
5.182904042E0,7.634124756E-3,-1.152902527E0,9.769434357E0,9.837229801E0
5.192923042E0,-3.558100891E-1,-1.184337158E0,9.481732635E0,9.562034778E0
5.202941750E0,-5.740562439E-1,-1.070873108E0,9.096583557E0,9.177371203E0
5.212960750E0,-8.544232178E-1,-9.792636108E-1,8.732390900E0,8.828569934E0
5.222978750E0,-1.224902802E0,-9.186396790E-1,8.534053345E0,8.670314425E0
5.232997750E0,-1.440903625E0,-8.021818542E-1,9.159003754E0,9.306290816E0
5.243016750E0,-1.717378693E0,-6.813830566E-1,9.583670654E0,9.760144243E0
5.253034750E0,-1.941163330E0,-7.240443420E-1,9.046737213E0,9.280937964E0
5.263053750E0,-1.782792664E0,-5.414241028E-1,9.000633087E0,9.191457214E0
5.273071750E0,-1.473535767E0,-3.092568970E-1,9.369765472E0,9.489965885E0
5.283090750E0,-1.259181519E0,-2.372566223E-1,9.616003418E0,9.700997399E0
5.293108750E0,-1.145717468E0,-2.122586060E-1,9.788145447E0,9.857256896E0
5.303127750E0,-1.084195404E0,-2.131567383E-1,9.862391052E0,9.924095563E0
5.313145750E0,-9.833052063E-1,-1.788780212E-1,9.819879456E0,9.870608846E0
5.323164750E0,-8.681945801E-1,-1.520837402E-1,9.505383453E0,9.546161841E0
5.333182750E0,-7.638615417E-1,-1.926493835E-1,8.963659973E0,8.998210842E0
5.343201750E0,-4.839436340E-1,-1.104702759E-1,8.436007233E0,8.450598982E0
5.353220750E0,-1.225950623E-1,1.110690308E-1,8.064779205E0,8.066475656E0
5.363238750E0,2.383044434E-1,4.207749939E-1,7.956703949E0,7.971384970E0
5.373257750E0,6.956034851E-1,8.978329468E-1,8.369246063E0,8.445960447E0
5.383275750E0,9.951306152E-1,1.308728485E0,8.855435028E0,9.006763277E0
5.393294750E0,1.045426025E0,1.533860321E0,9.157506866E0,9.343745238E0
5.403312750E0,9.933343506E-1,1.590592346E0,9.315278778E0,9.502163746E0
5.413331750E0,1.026565247E0,1.543141022E0,9.512418823E0,9.691296729E0
5.423349750E0,1.084644470E0,1.463955688E0,9.644743652E0,9.815329847E0
5.433368750E0,9.553134155E-1,1.351539459E0,9.545799408E0,9.688218049E0
5.443387750E0,6.932084656E-1,1.155147858E0,9.396859131E0,9.492937695E0
5.453405750E0,4.655319214E-1,9.084608459E-1,9.076974335E0,9.134193131E0
5.463424750E0,4.501139832E-1,8.011340332E-1,8.884474640E0,8.931870351E0
5.473442750E0,7.885601807E-1,1.045575714E0,8.973539429E0,9.068597775E0
5.483461750E0,1.029858398E0,1.436412964E0,9.104816437E0,9.274781554E0
5.493479750E0,1.036295013E0,1.807640991E0,9.382788391E0,9.611357412E0
5.503498750E0,9.183403015E-1,2.245031433E0,9.755064240E0,1.005210393E1
5.513516750E0,7.047344971E-1,2.597698059E0,1.007000931E1,1.042352020E1
5.523535750E0,4.251159668E-1,2.909499664E0,1.026086243E1,1.067385636E1
5.533554750E0,7.065307617E-2,3.211421814E0,1.042552002E1,1.090915623E1
5.543572750E0,-8.635542297E-1,4.660258942E0,1.188812851E1,1.279809903E1
5.553591750E0,-1.529669037E0,4.528083801E0,1.169113815E1,1.263036585E1
5.563609750E0,-1.378633118E0,3.594924316E0,1.050799850E1,1.119116360E1
5.573628750E0,-6.828799438E-1,3.258124695E0,9.478289795E0,1.004587871E1
5.583646750E0,5.134323120E-2,3.225193176E0,8.951235809E0,9.514679693E0
5.593665750E0,4.763095093E-1,3.374283142E0,8.540489960E0,9.195250199E0
5.603683750E0,8.637039185E-1,3.706143036E0,8.100704498E0,8.950022013E0
5.613702750E0,1.072369995E0,4.179608459E0,7.777227173E0,8.894063570E0
5.623721750E0,1.316811676E0,4.440665588E0,7.456593933E0,8.778057698E0
5.633739750E0,1.554667053E0,4.599185944E0,7.278464355E0,8.749031053E0
5.643758750E0,1.665586395E0,4.639152832E0,7.247778168E0,8.765055927E0
5.653776750E0,1.616488495E0,4.597090302E0,7.187303925E0,8.683525321E0
5.663795750E0,1.434766388E0,4.581372986E0,7.201075287E0,8.654652986E0
5.673813750E0,1.229243774E0,4.677323456E0,7.391030273E0,8.832650988E0
5.683832750E0,9.451345825E-1,4.904401245E0,7.677085419E0,9.158824787E0
5.693850750E0,7.295828247E-1,5.094954987E0,8.033793640E0,9.541105684E0
5.703869750E0,5.980064392E-1,5.094805298E0,8.192014618E0,9.665596527E0
5.713888750E0,4.983137512E-1,4.959486694E0,8.201145630E0,9.597062806E0
5.723906750E0,4.369413757E-1,4.826263733E0,8.217910767E0,9.540324772E0
5.733925750E0,4.044589233E-1,4.678820343E0,8.243357849E0,9.487249098E0
5.743943750E0,3.812571716E-1,4.410428467E0,8.443641357E0,9.533746151E0
5.753962750E0,3.195854187E-1,4.161196747E0,8.799002380E0,9.738590047E0
5.763980750E0,2.948867798E-1,4.219425659E0,9.092991028E0,1.002860892E1
5.773999750E0,1.722917175E-1,4.584217072E0,9.104816437E0,1.019521520E1
5.784018750E0,-8.292755127E-2,4.915029144E0,9.045390015E0,1.029482729E1
5.794036750E0,-2.588117981E-1,4.966372375E0,8.935368805E0,1.022607715E1
5.804055750E0,-3.326083374E-1,4.943919067E0,8.652606812E0,9.970986345E0
5.814073750E0,-1.818717957E-1,4.958289185E0,8.694369965E0,1.001048341E1
5.824092750E0,9.624984741E-2,4.876110077E0,8.947194214E0,1.019009312E1
5.834110750E0,3.906875610E-1,4.778962097E0,9.157955933E0,1.033727587E1
5.844129750E0,5.397775269E-1,4.830005951E0,9.119785309E0,1.033396349E1
5.854147750E0,5.667214966E-1,4.996160431E0,8.748108215E0,1.009020266E1
5.864166750E0,5.950126648E-1,5.295986938E0,8.451275482E0,9.991274944E0
5.874184750E0,5.128335571E-1,5.462440796E0,8.225993958E0,9.887782072E0
5.884203750E0,3.749702454E-1,5.513484650E0,8.074059906E0,9.784148355E0
5.894222750E0,1.576222229E-1,5.498815155E0,8.049510956E0,9.749689200E0
5.904240750E0,-1.098715210E-1,5.362897797E0,8.178093567E0,9.780284194E0
5.914259750E0,-3.823049927E-1,5.288652191E0,8.462801514E0,9.986741639E0
5.924277750E0,-6.493496704E-1,5.340743866E0,8.669371948E0,1.020309806E1
5.934296750E0,-8.704399109E-1,5.311404877E0,8.717721405E0,1.024535768E1
5.944314750E0,-9.883946228E-1,5.119503937E0,8.625812531E0,1.007923044E1
5.954333750E0,-9.659413147E-1,5.063969421E0,8.378526764E0,9.837506781E0
5.964352750E0,-1.024768982E0,5.139562225E0,8.167166290E0,9.704012394E0
5.974370750E0,-1.168470154E0,5.245841217E0,8.012388153E0,9.647929130E0
5.984389750E0,-1.312770081E0,5.314997406E0,7.867190094E0,9.584635762E0
5.994407750E0,-1.403481445E0,5.309458923E0,7.922574921E0,9.639881099E0
6.004426750E0,-1.479673004E0,5.266947327E0,7.919880524E0,9.625729783E0
6.014444750E0,-1.533111877E0,5.306465149E0,7.720644836E0,9.493016438E0
6.024463750E0,-1.694925385E0,5.258265381E0,7.672295380E0,9.454429822E0
6.034481750E0,-1.869911499E0,5.084476776E0,7.756270752E0,9.460877818E0
6.044500750E0,-1.903741150E0,4.959337006E0,7.672594757E0,9.332093238E0
6.054519750E0,-1.857187958E0,5.007686462E0,7.601043549E0,9.289883414E0
6.064537750E0,-1.802701263E0,5.133724365E0,7.568261719E0,9.321128856E0
6.074556750E0,-1.769170990E0,5.190007324E0,7.541168060E0,9.323913220E0
6.084574750E0,-1.762884064E0,5.223387909E0,7.688611450E0,9.460776263E0
6.094593750E0,-1.899849243E0,5.113217010E0,8.045319672E0,9.720163783E0
6.104611750E0,-1.923200684E0,4.993915100E0,7.930807800E0,9.567423962E0
6.114630750E0,-1.891616364E0,4.952451324E0,7.690108337E0,9.340382906E0
6.124648750E0,-2.029779053E0,4.523443451E0,7.451504517E0,8.950221406E0
6.134667750E0,-2.198777618E0,4.758754120E0,7.432344360E0,9.095059454E0
6.144685750E0,-2.385289764E0,5.156477051E0,7.553143158E0,9.451393252E0
6.154704750E0,-2.548600159E0,5.466781769E0,7.695796509E0,9.777849947E0