"Time (s)","Acceleration x (m/s^2)","Acceleration y (m/s^2)","Acceleration z (m/s^2)","Absolute acceleration (m/s^2)"
1.929583332E-4,-1.777703247E0,2.600991211E0,9.808952179E0,1.030247189E1
1.021095833E-2,-1.593436432E0,2.234852600E0,8.964558105E0,9.375335078E0
2.022895833E-2,-1.319506073E0,2.135159912E0,8.357869720E0,8.726625372E0
3.024795833E-2,-1.094972992E0,2.200274506E0,8.305927734E0,8.661905638E0
4.026595833E-2,-1.063837738E0,2.343227234E0,8.643475800E0,9.018433262E0
5.028495833E-2,-1.219813385E0,2.469714203E0,9.185348969E0,9.589476973E0
6.030295833E-2,-1.489851837E0,2.680176544E0,9.350605316E0,9.840570338E0
7.032195833E-2,-1.965562592E0,3.104693756E0,8.956175537E0,9.680683854E0
8.033995833E-2,-2.312091980E0,3.119213562E0,8.690478058E0,9.518385968E0
9.035795833E-2,-2.376907196E0,2.716101837E0,8.760981445E0,9.475320200E0
1.003769583E-1,-2.278262329E0,2.482138367E0,8.847800903E0,9.467579994E0
1.103949583E-1,-2.124532013E0,2.411784668E0,8.916807404E0,9.478385719E0
1.204139583E-1,-2.000589752E0,2.456541595E0,8.929680634E0,9.475027820E0
1.304319583E-1,-1.963916016E0,2.500400391E0,8.916807404E0,9.466700719E0
1.404499583E-1,-1.960173798E0,2.477647705E0,8.936416626E0,9.478426113E0
1.504689583E-1,-1.918859711E0,2.451452179E0,9.010362854E0,9.533009973E0
1.604869583E-1,-1.875449982E0,2.396366730E0,9.173373871E0,9.664919778E0
1.705059583E-1,-1.813179474E0,2.301464081E0,9.310339050E0,9.760469761E0
1.805239583E-1,-1.730102234E0,2.244881744E0,9.531279602E0,9.943743693E0
1.905429583E-1,-1.548829193E0,2.154469757E0,9.472751312E0,9.837358854E0
2.005609583E-1,-1.445843353E0,1.975741425E0,9.362879791E0,9.677682324E0
2.105789583E-1,-1.382824402E0,1.733395386E0,9.361831970E0,9.620850312E0
2.205979583E-1,-1.384021912E0,1.515747986E0,9.431586914E0,9.652348954E0
2.306159583E-1,-1.422192535E0,1.446741486E0,9.683513031E0,9.893741312E0
2.406349583E-1,-1.342707825E0,1.568887482E0,9.944270782E0,1.015641638E1
2.506529583E-1,-1.321601715E0,1.750759277E0,1.005010071E1,1.028670566E1
2.606709583E-1,-1.350042572E0,1.935175781E0,1.010877869E1,1.038050706E1
2.706899583E-1,-1.346000977E0,2.046244812E0,1.018212616E1,1.047256079E1
2.807079583E-1,-1.286275177E0,2.112556915E0,1.010817993E1,1.040637795E1
2.907269583E-1,-1.240320740E0,2.140548706E0,1.005743546E1,1.035723671E1
3.007449583E-1,-1.192719727E0,2.093696136E0,1.014799713E1,1.043014811E1
3.107639583E-1,-1.167572021E0,2.165546722E0,1.018526962E1,1.047819328E1
3.207819583E-1,-1.076860657E0,2.190544739E0,1.010249176E1,1.039319272E1
3.307999583E-1,-9.678872681E-1,2.004930725E0,9.929900665E0,1.017641785E1
3.408189583E-1,-8.976832581E-1,1.718725891E0,9.746232605E0,9.937248307E0
3.508369583E-1,-8.783734131E-1,1.474134521E0,9.526489563E0,9.679804535E0
3.608559583E-1,-7.726931763E-1,1.308429108E0,9.159003754E0,9.284201163E0
3.708739583E-1,-5.959107971E-1,1.248852997E0,8.886570282E0,8.993657480E0
3.808919583E-1,-5.065466309E-1,1.305884399E0,8.724906464E0,8.836623583E0
3.909109583E-1,-7.351213074E-1,1.228944397E0,9.127868500E0,9.239517900E0
4.009289583E-1,-8.987310791E-1,1.077309723E0,9.508526917E0,9.611472203E0
4.109479583E-1,-9.927355957E-1,1.051114197E0,9.668843536E0,9.776343915E0
4.209659583E-1,-1.057251434E0,1.170565796E0,9.817334747E0,9.943242249E0
4.309839583E-1,-1.132395172E0,1.340163116E0,9.848020935E0,1.000309314E1
4.410029583E-1,-1.219963074E0,1.417851562E0,9.800419922E0,9.977316453E0
4.510209583E-1,-1.363364868E0,1.387913818E0,9.790690155E0,9.982118124E0
4.610399583E-1,-1.439107361E0,1.397942963E0,9.841734009E0,1.004415267E1
4.710579583E-1,-1.433568878E0,1.412911835E0,9.840237122E0,1.004398856E1
4.810769583E-1,-1.481469269E0,1.440753937E0,9.787397003E0,1.000318265E1
4.910949583E-1,-1.442999268E0,1.517993317E0,9.747729492E0,9.970194624E0
5.011129583E-1,-1.371897125E0,1.504521332E0,9.740394745E0,9.950928396E0
5.111322917E-1,-1.341210938E0,1.347647552E0,9.689350891E0,9.874133957E0
5.211502917E-1,-1.375639343E0,1.158890076E0,9.654623108E0,9.820751354E0
5.311692917E-1,-1.324745178E0,1.043480072E0,9.546398163E0,9.694200242E0
5.411872917E-1,-1.214574280E0,9.880952454E-1,9.353449402E0,9.483593128E0
5.512052917E-1,-1.145717468E0,9.560618591E-1,9.205856323E0,9.326012730E0
5.612242917E-1,-1.086440735E0,9.845027161E-1,9.207053833E0,9.323059549E0
5.712422917E-1,-1.001716919E0,1.090931396E0,9.233099670E0,9.351133494E0
5.812612917E-1,-1.013991394E0,1.174008636E0,9.280101929E0,9.408866384E0
5.912792917E-1,-1.087338867E0,1.224004669E0,9.334588623E0,9.477079614E0
6.012982917E-1,-1.130449219E0,1.280137939E0,9.372010803E0,9.526345316E0
6.113162917E-1,-1.167422333E0,1.364263000E0,9.436227264E0,9.605543890E0
6.213342917E-1,-1.189576263E0,1.440005493E0,9.559870148E0,9.740627534E0
6.313532917E-1,-1.198258209E0,1.498533783E0,9.647438049E0,9.836385878E0
6.413712917E-1,-1.208736420E0,1.500180359E0,9.683213654E0,9.873004178E0
6.513902917E-1,-1.268911285E0,1.436412964E0,9.743089142E0,9.929813900E0
6.614082917E-1,-1.353335724E0,1.393003235E0,9.774673462E0,9.965752198E0
6.714262917E-1,-1.446292419E0,1.462608490E0,9.763147430E0,9.977476289E0
6.814452917E-1,-1.467099152E0,1.617236938E0,9.768985291E0,1.001004040E1
6.914632917E-1,-1.412612457E0,1.773661652E0,9.810299377E0,1.006892862E1
7.014822917E-1,-1.383872223E0,1.852547607E0,9.804311829E0,1.007330956E1
7.115002917E-1,-1.399888916E0,1.863175507E0,9.775122528E0,1.004908615E1
7.215192917E-1,-1.399888916E0,1.778751068E0,9.807904358E0,1.006571568E1
7.315372917E-1,-1.378782806E0,1.664388885E0,9.824819183E0,1.005973679E1
7.415552917E-1,-1.340911560E0,1.567989349E0,9.801916809E0,1.001669644E1
7.515742917E-1,-1.240320740E0,1.408570862E0,9.768536224E0,9.947198971E0
7.615922917E-1,-1.163530426E0,1.246457977E0,9.688303070E0,9.837208797E0
7.716112917E-1,-1.117725677E0,1.095871124E0,9.539213104E0,9.666790101E0
7.816292917E-1,-1.193767548E0,9.098080444E-1,9.376052399E0,9.495429965E0
7.916472917E-1,-1.290915527E0,7.875123596E-1,9.284293213E0,9.406632717E0
8.016662917E-1,-1.250050507E0,8.195457458E-1,9.223519592E0,9.343853336E0
8.116842917E-1,-1.238374786E0,9.861492920E-1,9.192234650E0,9.327552755E0
8.217032917E-1,-1.334474945E0,1.129850464E0,9.237740021E0,9.401767182E0
8.317212917E-1,-1.392853546E0,1.222058716E0,9.336983643E0,9.519072016E0
8.417402917E-1,-1.451681213E0,1.304387512E0,9.388027496E0,9.588736382E0
8.517582917E-1,-1.549278259E0,1.372346191E0,9.317823486E0,9.544916538E0
8.617762917E-1,-1.726809082E0,1.410516815E0,9.287885742E0,9.551766792E0
8.717952917E-1,-1.858235779E0,1.419647827E0,9.266180878E0,9.556701744E0
8.818132917E-1,-1.813029785E0,1.470242615E0,9.177116089E0,9.469326801E0
8.918322917E-1,-1.735341339E0,1.630708923E0,9.191635895E0,9.495093026E0
9.018502917E-1,-1.640738068E0,1.690734100E0,9.305998077E0,9.599593920E0
9.118682917E-1,-1.609902191E0,1.419348450E0,9.435778198E0,9.676788997E0
9.218872917E-1,-1.574425964E0,1.127605133E0,9.308692474E0,9.508000107E0
9.319052917E-1,-1.357527008E0,9.951306152E-1,8.957223358E0,9.114001032E0
9.419242917E-1,-1.171912994E0,8.418493652E-1,8.900790710E0,9.016993162E0
9.519422917E-1,-9.921368408E-1,6.191125488E-1,8.905281372E0,8.981741044E0
9.619612917E-1,-8.857081604E-1,5.096900940E-1,8.767717438E0,8.827068143E0
9.719792917E-1,-8.170010376E-1,5.655239868E-1,8.827892303E0,8.883636113E0
9.819972917E-1,-8.304730225E-1,6.394702148E-1,8.946296082E0,9.007486951E0
9.920162917E-1,-9.315129089E-1,7.740403748E-1,8.989406433E0,9.070627477E0
1.002034292E0,-1.162033539E0,9.720785522E-1,9.069639587E0,9.195304285E0
1.012053292E0,-1.123264160E0,8.446934509E-1,8.941056976E0,9.050841356E0
1.022071292E0,-1.152154083E0,7.162605286E-1,8.781189423E0,8.885368639E0
1.032089292E0,-1.227148132E0,7.565267944E-1,8.519533539E0,8.640641009E0
1.042108292E0,-1.183588715E0,8.065228271E-1,8.200995941E0,8.325124368E0
1.052126292E0,-1.273851013E0,1.109792175E0,7.899223480E0,8.077875133E0
1.062145292E0,-1.345102844E0,1.319655762E0,7.958200836E0,8.178248806E0
1.072163292E0,-1.480122070E0,1.417103119E0,8.450976105E0,8.695857618E0
1.082182292E0,-1.547631683E0,1.644031219E0,9.196725311E0,9.469834155E0
1.092200292E0,-1.446292419E0,1.573078766E0,9.953252106E0,1.018005727E1
1.102218292E0,-1.644779663E0,1.307231598E0,1.024304947E1,1.045630035E1
1.112237292E0,-1.873354340E0,1.097068634E0,1.011341904E1,1.034380301E1
1.122255292E0,-2.001637573E0,9.532177734E-1,9.578132172E0,9.831367809E0
1.132274292E0,-1.923200684E0,9.505233765E-1,8.949888611E0,9.203407070E0
1.142292292E0,-1.901346130E0,1.191971283E0,8.649463348E0,8.935833977E0
1.152310292E0,-1.787582703E0,1.630110168E0,8.807384949E0,9.133605023E0
1.162329292E0,-1.402134247E0,1.891766052E0,9.325307922E0,9.618010558E0
1.172347292E0,-1.218316498E0,1.800904999E0,9.988578644E0,1.022248782E1
1.182366292E0,-1.273401947E0,1.453627167E0,1.041414368E1,1.059192962E1
1.192384292E0,-1.273401947E0,1.202449493E0,1.042746597E1,1.057352751E1
1.202403292E0,-1.070424042E0,1.147214355E0,9.992919617E0,1.011535224E1
1.212421292E0,-8.355624390E-1,1.249152374E0,9.389374695E0,9.508885497E0
1.222439292E0,-6.420149231E-1,1.386117554E0,8.753646698E0,8.885934703E0
1.232458292E0,-4.890330505E-1,1.480271759E0,8.245303802E0,8.391388002E0
1.242476292E0,-4.433779907E-1,1.575473785E0,7.954009552E0,8.120650814E0
1.252495292E0,-4.480183411E-1,1.754351807E0,8.190667419E0,8.388414837E0
1.262513292E0,-4.046086121E-1,1.817520447E0,8.982969818E0,9.173921487E0
1.272532292E0,-5.312452698E-1,1.616189117E0,9.745184784E0,9.892568689E0
1.282550292E0,-9.063652039E-1,1.411414948E0,1.012060410E1,1.025866547E1
1.292568292E0,-6.233038330E-1,1.235081635E0,9.994266815E0,1.008956409E1
1.302587292E0,-3.954776001E-1,8.449928284E-1,9.524842987E0,9.570425766E0
1.312605292E0,-3.206332397E-1,8.647517395E-1,9.290879517E0,9.336543442E0
1.322624292E0,-2.633024597E-1,1.198407898E0,9.357940063E0,9.438037503E0
1.332642292E0,-6.990463257E-2,1.531764679E0,9.455686798E0,9.579206779E0
1.342660292E0,9.819580078E-2,1.790426788E0,9.592951355E0,9.759097612E0
1.352679292E0,1.736389160E-1,1.841320953E0,9.844727783E0,1.001694956E1
1.362697292E0,3.490740967E-1,1.622176666E0,1.013362701E1,1.026857859E1
1.372716292E0,5.134323120E-1,1.270108795E0,1.023077499E1,1.032209020E1
1.382734292E0,5.580395508E-1,8.728349304E-1,9.985135803E0,1.003873428E1
1.392753292E0,6.134243774E-1,6.117778015E-1,9.440867615E0,9.480534946E0
1.402771292E0,5.837860107E-1,4.189787292E-1,8.959618378E0,8.988387550E0
1.412789292E0,5.343887329E-1,2.080673218E-1,8.709338837E0,8.728198342E0
1.422808292E0,4.441264343E-1,-1.389111328E-1,8.536148987E0,8.548823552E0
1.432826292E0,1.399589539E-1,-4.915777588E-1,8.465944977E0,8.481359652E0
1.442845292E0,-3.817062378E-1,-8.096662903E-1,8.737630005E0,8.783361387E0
1.452863292E0,-5.839356995E-1,-1.100661163E0,8.993298340E0,9.079198804E0
1.462881292E0,-7.774832153E-1,-1.390608215E0,9.052575073E0,9.191702063E0
1.472900292E0,-1.175954590E0,-1.338217163E0,9.032816162E0,9.206816072E0
1.482918292E0,-1.406475220E0,-9.404942322E-1,9.159901886E0,9.314853971E0
1.492937292E0,-1.576820984E0,-2.647993469E-1,9.531279602E0,9.664459321E0
1.502955292E0,-1.546134796E0,6.119274902E-1,1.010518616E1,1.024108272E1
1.512978167E0,-1.286873932E0,1.524130554E0,1.088296875E1,1.106426804E1
1.522996167E0,-1.409019928E0,2.076631622E0,1.162662231E1,1.189437188E1
1.533014167E0,-1.602417755E0,2.177521820E0,1.180310532E1,1.210878355E1
1.543033167E0,-1.521585846E0,1.398691406E0,1.128503265E1,1.147272954E1
1.553051167E0,-1.657353516E0,6.173162842E-1,1.103849533E1,1.117927901E1
1.563070167E0,-1.633253632E0,7.514373779E-1,1.060664337E1,1.075793006E1
1.573088167E0,-1.188977509E0,1.020428009E0,9.805060272E0,9.929458584E0
1.583106167E0,-8.150550842E-1,9.946815491E-1,9.064400482E0,9.155165879E0
1.593125167E0,-7.177574158E-1,7.213499451E-1,8.828191681E0,8.886646713E0
1.603143167E0,-7.062313843E-1,3.962260437E-1,9.003926239E0,9.040268003E0
1.613162167E0,-5.996530151E-1,2.585124207E-1,9.422755280E0,9.445354915E0
1.623180167E0,-6.077362061E-1,1.799258423E-1,1.001612137E1,1.003615483E1
1.633199167E0,-6.129753113E-1,2.142045593E-1,1.045126648E1,1.047141792E1
1.643217167E0,-6.240522766E-1,3.360511780E-1,1.059152481E1,1.061521406E1
1.653235167E0,-5.863307190E-1,5.474116516E-1,1.052715866E1,1.055767553E1
1.663254167E0,-6.956034851E-1,8.562194824E-1,1.057146652E1,1.062887014E1
1.673272167E0,-6.971003723E-1,1.209484863E0,1.051174072E1,1.060403204E1
1.683291167E0,-5.138813782E-1,1.005309448E0,1.027193939E1,1.033380182E1
1.693309167E0,-3.141966248E-1,1.087638245E0,1.042731628E1,1.048859387E1
1.703328167E0,-1.059796143E-1,1.194066925E0,1.058149567E1,1.064918204E1
1.713346167E0,1.175056458E-1,1.002914429E0,1.066412384E1,1.071182441E1
1.723364167E0,1.525328064E-1,8.702902222E-1,1.086276077E1,1.089863491E1
1.733383167E0,-1.743873596E-1,9.219328308E-1,1.097472794E1,1.101476393E1
1.743401167E0,-2.284249878E-1,1.209035797E0,1.092847412E1,1.099752209E1
1.753420167E0,-2.863545227E-1,1.482367401E0,1.060424835E1,1.071118551E1
1.763438167E0,-2.963836670E-1,1.704505463E0,1.006132736E1,1.020899067E1
1.773456167E0,-2.947370911E-1,1.763931885E0,9.682165833E0,9.845946417E0
1.783475167E0,-2.453398132E-1,1.633852386E0,9.561965790E0,9.703651633E0
1.793493167E0,-2.763253784E-1,1.436263275E0,9.633217621E0,9.743617893E0
1.803512167E0,-3.335064697E-1,1.384171600E0,9.730365601E0,9.833980491E0
1.813530167E0,-2.459385681E-1,1.619332581E0,9.760752411E0,9.897222409E0
1.823549167E0,-4.610412598E-2,1.644929352E0,9.741143188E0,9.879159316E0
1.833567167E0,-1.856140137E-1,1.539398804E0,9.864337006E0,9.985456715E0
1.843585167E0,-4.351451111E-1,1.496138763E0,1.002779709E1,1.014812775E1
1.853604167E0,-1.658551025E-1,1.543141022E0,1.007360184E1,1.019246026E1
1.863622167E0,3.996688843E-2,1.519340515E0,1.008108627E1,1.019501316E1
1.873641167E0,5.029541016E-2,1.411714325E0,1.015787659E1,1.025562888E1
1.883659167E0,1.332229614E-1,1.304537201E0,1.024140289E1,1.032501326E1
1.893677167E0,3.164419556E-1,1.026565247E0,1.047267197E1,1.052762223E1
1.903696167E0,4.099974060E-1,6.240522766E-1,1.103385498E1,1.105909105E1
1.913714167E0,5.795947266E-1,1.951940918E-1,1.158006912E1,1.159620764E1
1.923733167E0,6.975494385E-1,-2.665956116E-1,1.151420609E1,1.153839634E1
1.933751167E0,6.890171814E-1,-7.508386230E-1,1.101933517E1,1.106635672E1
1.943770167E0,5.998027039E-1,-1.022074585E0,1.074390793E1,1.080906829E1
1.953788167E0,3.559597778E-1,-8.164022827E-1,1.071546707E1,1.075241622E1
1.963806167E0,5.703140259E-1,-3.284170532E-1,1.069810318E1,1.071832671E1
1.973825167E0,6.816824341E-1,2.161505127E-1,1.061248123E1,1.063654878E1
1.983843167E0,6.390211487E-1,6.429130554E-1,1.041878403E1,1.045814256E1
1.993862167E0,4.650828552E-1,8.231382751E-1,1.022643402E1,1.027004438E1
2.003880167E0,2.841091919E-1,9.279203796E-1,1.010788055E1,1.015435885E1
2.013899167E0,7.125183105E-2,1.027463379E0,1.005533981E1,1.010794819E1
2.023917167E0,-1.790277100E-1,1.161285095E0,1.005399261E1,1.012242073E1
2.033935167E0,-3.649411011E-1,1.128503265E0,1.018526962E1,1.025409279E1
2.043954167E0,-3.770658875E-1,8.873547363E-1,1.006641678E1,1.011248357E1
2.053972167E0,-4.183799744E-1,5.245092773E-1,9.876312103E0,9.899075338E0
2.063991167E0,-3.999682617E-1,6.212081909E-1,9.708361359E0,9.736434383E0
2.074009167E0,-2.983296204E-1,7.081773376E-1,9.393715668E0,9.425094681E0
2.084028167E0,-2.541714478E-1,8.044271851E-1,9.165140991E0,9.203885897E0
2.094046167E0,-2.535726929E-1,1.002315674E0,9.123527527E0,9.181921931E0
2.104064167E0,-1.788780212E-1,1.218316498E0,9.266330566E0,9.347789824E0
2.114083167E0,-8.996292114E-2,1.273701324E0,9.511670380E0,9.596993373E0
2.124101167E0,-2.194436646E-1,1.341809692E0,9.649982758E0,9.745295070E0
2.134120167E0,-2.918930054E-1,1.355281677E0,9.997859344E0,1.009352176E1
2.144138167E0,-4.032614136E-1,1.273851013E0,1.021131546E1,1.029836296E1
2.154156167E0,-3.489244080E-1,1.231638794E0,1.012150223E1,1.020213163E1
2.164175167E0,-1.766326904E-1,1.218166809E0,9.921967163E0,9.998027899E0
2.174193167E0,-4.490661621E-4,1.155596924E0,9.639953613E0,9.708970600E0
2.184212167E0,2.284249878E-1,1.123114471E0,9.439520416E0,9.508843767E0
2.194230167E0,4.198768616E-1,9.464817810E-1,9.481133881E0,9.537506173E0
2.204249167E0,6.432124329E-1,7.363188171E-1,9.492510223E0,9.542726967E0
2.214267167E0,6.800358582E-1,6.251000977E-1,9.610764313E0,9.655049952E0
2.224285167E0,6.424639893E-1,4.517605591E-1,9.655521240E0,9.687411316E0
2.234304167E0,5.809419250E-1,2.968327332E-1,9.693392487E0,9.715320946E0
2.244322167E0,4.742138672E-1,2.582130432E-1,9.825867004E0,9.840691803E0
2.254341167E0,2.836601257E-1,3.981719971E-1,9.908195801E0,9.920249394E0
2.264359167E0,2.389031982E-1,3.121009827E-1,9.796977081E0,9.804858066E0
2.274378167E0,-7.948471069E-2,3.017724609E-1,9.935588837E0,9.940488417E0
2.284396167E0,-3.433859253E-1,3.875440979E-1,1.019814285E1,1.021127915E1
2.294414167E0,-4.355941772E-1,4.222718811E-1,1.045396088E1,1.047154973E1
2.304433167E0,-5.254074097E-1,4.980143738E-1,1.042013123E1,1.044524801E1
2.314451167E0,-2.875520325E-1,7.158114624E-1,1.016640884E1,1.019563343E1
2.324470167E0,1.047821045E-2,8.416996765E-1,9.884245605E0,9.920024160E0
2.334488167E0,1.118174744E-1,8.192463684E-1,9.618997192E0,9.654469159E0
2.344506167E0,9.744735718E-2,6.912625122E-1,9.369316406E0,9.395287636E0
2.354525167E0,7.289840698E-2,4.842430115E-1,9.204808502E0,9.217825396E0
2.364543167E0,1.014889526E-1,2.474354553E-1,9.161099396E0,9.165002261E0
2.374562167E0,1.294807434E-1,2.544708252E-3,9.203461304E0,9.204372423E0
2.384580167E0,1.730401611E-1,-1.742376709E-1,9.355095978E0,9.358318354E0
2.394599167E0,1.913021851E-1,-1.492396545E-1,9.603878632E0,9.606942998E0
2.404617167E0,2.881507874E-1,-7.005432129E-2,9.992470551E0,9.996869819E0
2.414635167E0,2.338137817E-1,3.367996216E-2,1.051039352E1,1.051304786E1
2.424654167E0,7.873626709E-2,8.711883545E-2,1.089838669E1,1.089901929E1
2.434672167E0,5.523513794E-2,4.079017639E-1,1.097368011E1,1.098139745E1
2.444691167E0,-7.753875732E-2,7.423063660E-1,1.075917618E1,1.078503143E1
2.454709167E0,-3.525169373E-1,7.363188171E-1,1.032882111E1,1.036103176E1
2.464728167E0,-4.781057739E-1,6.261479187E-1,9.886790314E0,9.918128304E0
2.474746167E0,-3.918850708E-1,4.968168640E-1,9.614656219E0,9.635456145E0
2.484764167E0,-3.339555359E-1,2.972817993E-1,9.547296295E0,9.557759639E0
2.494783167E0,-1.082249451E-1,2.707868958E-1,9.640402679E0,9.644812181E0
2.504801167E0,2.248324585E-1,4.309538269E-1,9.601333923E0,9.613630113E0
2.514815792E0,4.180805969E-1,5.801934814E-1,9.534423065E0,9.561204895E0
2.524833792E0,3.649411011E-1,1.010398865E-1,9.450597382E0,9.458180688E0
2.534852792E0,-7.723937988E-2,-2.227368164E-1,9.466015320E0,9.468950504E0
2.544870792E0,-2.441423035E-1,6.571334839E-2,9.301058350E0,9.304494083E0
2.554888792E0,-1.336720276E-1,5.210664368E-1,8.919052734E0,8.935260495E0
2.564907792E0,-1.457968140E-1,8.526269531E-1,8.715027008E0,8.757849347E0
2.574925792E0,-2.215393066E-1,1.202000427E0,9.036408691E0,9.118693258E0
2.584944792E0,-1.342707825E-1,1.555565186E0,9.533824310E0,9.660829036E0
2.594962792E0,9.445358276E-2,1.730102234E0,1.000878662E1,1.015765646E1
2.604980792E0,2.261796570E-1,1.726360016E0,1.028556107E1,1.043188586E1
2.614999792E0,3.059637451E-1,1.439107361E0,1.049407745E1,1.059671201E1
2.625017792E0,3.649411011E-1,1.011596375E0,1.032612671E1,1.038197486E1
2.635036792E0,4.501139832E-1,4.273612976E-1,9.845326538E0,9.864871764E0
2.645054792E0,2.568658447E-1,-1.477427673E-1,9.628128204E0,9.632687097E0
2.655073792E0,2.088157654E-1,-3.968247986E-1,9.782307587E0,9.792579623E0
2.665091792E0,3.423381042E-1,-3.914360046E-1,9.959688721E0,9.973255082E0
2.675109792E0,4.285588074E-1,-3.891906738E-1,1.000788849E1,1.002461790E1
2.685128792E0,5.198689270E-1,-4.761598206E-1,1.000369720E1,1.002850685E1
2.695146792E0,5.480104065E-1,-5.733078003E-1,9.996961212E0,1.002837129E1
2.705165792E0,4.664300537E-1,-5.809419250E-1,9.892328796E0,9.920343720E0
2.715183792E0,3.342549133E-1,-4.492158508E-1,9.645192719E0,9.661431768E0
2.725202792E0,2.243833923E-1,-2.677931213E-1,9.439370728E0,9.445834044E0
2.735220792E0,1.076261902E-1,-1.532812500E-1,9.404044189E0,9.405909082E0
2.745238792E0,-8.158035278E-2,-1.803749084E-1,9.427096252E0,9.429174631E0
2.755257792E0,-1.766326904E-1,-3.076103210E-1,9.550589447E0,9.557174373E0
2.765275792E0,-3.528163147E-1,-4.861889648E-1,9.574689331E0,9.593515250E0
2.775294792E0,-4.077520752E-1,-6.152206421E-1,9.772128754E0,9.799962172E0
2.785312792E0,-3.192860413E-1,-6.559359741E-1,1.002734802E1,1.005385020E1
2.795331792E0,-8.966354370E-2,-6.363267517E-1,1.030277527E1,1.032279659E1
2.805349792E0,9.999206543E-2,-5.885760498E-1,1.048060547E1,1.049759549E1
2.815367792E0,2.145039368E-1,-4.513114929E-1,1.054572006E1,1.055755207E1
2.825386792E0,2.047741699E-1,-3.592529297E-1,1.030008087E1,1.030837820E1
2.835404792E0,3.100053406E-1,-4.216731262E-1,1.007674530E1,1.009032742E1
2.845423792E0,2.412982178E-1,-3.921844482E-1,9.737251282E0,9.748132949E0
2.855441792E0,3.444337463E-1,-4.595443726E-1,9.708511047E0,9.725482116E0
2.865459792E0,4.755610657E-1,-9.660910034E-1,9.958341522E0,1.001638937E1
2.875478792E0,5.075944519E-1,-1.559906158E0,9.961634674E0,1.009579738E1
2.885496792E0,5.584886169E-1,-1.873953094E0,9.498797150E0,9.697976955E0
2.895515792E0,6.740483093E-1,-1.936822357E0,8.833730164E0,9.068649876E0
2.905533792E0,9.086105347E-1,-1.942959595E0,8.398884430E0,8.668444195E0
2.915552792E0,1.129401398E0,-1.888323212E0,8.432265015E0,8.714608732E0
2.925570792E0,1.221459961E0,-1.739981689E0,8.761580200E0,9.015807691E0
2.935588792E0,9.713301086E-1,-1.606609039E0,9.047934723E0,9.240660016E0
2.945607792E0,5.761518860E-1,-1.593586121E0,9.253307648E0,9.407187154E0
2.955625792E0,2.869532776E-1,-1.639241180E0,9.463470612E0,9.608679922E0
2.965644792E0,8.307723999E-2,-1.654808807E0,9.669142914E0,9.810077406E0
2.975662792E0,-1.657054138E-1,-1.580862579E0,9.932744751E0,1.005912536E1
2.985681792E0,-1.984872437E-1,-1.549727325E0,1.007689499E1,1.019729693E1
2.995699792E0,-1.008901978E-1,-1.619033203E0,1.025622208E1,1.038371507E1
3.005717792E0,1.800755310E-1,-1.706152039E0,1.033855087E1,1.047993398E1
3.015736792E0,5.194198608E-1,-1.833836517E0,1.022763153E1,1.040371088E1
3.025754792E0,7.720944214E-1,-1.949695587E0,1.002510269E1,1.024207629E1
3.035773792E0,9.235794067E-1,-2.000140686E0,9.800569611E0,1.004513446E1
3.045791792E0,9.864486694E-1,-2.005828857E0,9.567055206E0,9.824712500E0
3.055810792E0,9.957293701E-1,-1.987267456E0,9.380543060E0,9.640295484E0
3.065828792E0,1.005159760E0,-1.996398468E0,9.271120605E0,9.536751557E0
3.075846792E0,1.083446960E0,-2.024539948E0,9.264683990E0,9.544998102E0
3.085865792E0,1.266665955E0,-2.098635864E0,9.229656830E0,9.549621999E0
3.095883792E0,1.545985107E0,-2.220332794E0,9.211993561E0,9.601081868E0
3.105902792E0,1.887425079E0,-2.348017273E0,9.136251068E0,9.620116534E0
3.115920792E0,2.162253571E0,-2.458188171E0,9.073980560E0,9.646509877E0
3.125938792E0,2.321522369E0,-2.531236267E0,9.040150909E0,9.670623125E0
3.135957792E0,2.376607819E0,-2.577639771E0,9.082363129E0,9.735595077E0
3.145975792E0,2.391726379E0,-2.607278137E0,9.140592041E0,9.801463014E0
3.155994792E0,2.398911438E0,-2.618953857E0,9.145831146E0,9.811214132E0
3.166012792E0,2.335742798E0,-2.565514984E0,9.080716553E0,9.720955440E0
3.176031792E0,2.224973145E0,-2.389630737E0,9.017697601E0,9.590605329E0
3.186049792E0,2.175126801E0,-2.249821472E0,9.028774567E0,9.555712607E0
3.196067792E0,2.223176880E0,-2.127675476E0,9.128916321E0,9.633619858E0
3.206086792E0,2.345921631E0,-2.032473450E0,9.271869049E0,9.777619970E0
3.216104792E0,2.421065369E0,-1.998194733E0,9.402846680E0,9.913014950E0
3.226123792E0,2.453248444E0,-2.023043060E0,9.477391663E0,9.996603617E0
3.236141792E0,2.406695251E0,-2.076631622E0,9.484876099E0,1.000337221E1
3.246160792E0,2.343376923E0,-2.120041351E0,9.424850922E0,9.940513348E0
3.256178792E0,2.287243652E0,-2.072440338E0,9.337283020E0,9.834192731E0
3.266196792E0,2.211052094E0,-1.984573059E0,9.284891968E0,9.748666598E0
3.276215792E0,2.078577576E0,-1.951791229E0,9.259744263E0,9.688799593E0
3.286233792E0,1.970652008E0,-1.981279907E0,9.280700684E0,9.692282733E0
3.296252792E0,1.907333679E0,-2.033670959E0,9.341623993E0,9.748829579E0
3.306270792E0,1.932032318E0,-2.038011932E0,9.454339600E0,9.862594931E0
3.316288792E0,1.961970062E0,-2.008223877E0,9.524393921E0,9.929570445E0
3.326307792E0,1.927990723E0,-1.971550140E0,9.521549835E0,9.912823485E0
3.336325792E0,1.932631073E0,-1.984273682E0,9.484277344E0,9.880481853E0
3.346344792E0,1.986818390E0,-2.043999481E0,9.448352051E0,9.868978552E0
3.356362792E0,2.042951660E0,-2.115251312E0,9.441765747E0,9.889129386E0
3.366381792E0,2.079775085E0,-2.190245361E0,9.438921661E0,9.910392590E0
3.376399792E0,2.126927032E0,-2.212548981E0,9.424102478E0,9.911251137E0
3.386417792E0,2.175126801E0,-2.192490692E0,9.431437225E0,9.924222900E0
3.396436792E0,2.250120850E0,-2.136058044E0,9.421707458E0,9.919393088E0
3.406454792E0,2.274220734E0,-2.058070221E0,9.389075317E0,9.877371528E0
3.416473792E0,2.194286957E0,-1.997446289E0,9.311536560E0,9.772891079E0
3.426491792E0,2.083666992E0,-1.957928467E0,9.224717102E0,9.657668333E0
3.436510792E0,1.987566833E0,-1.918410645E0,9.204209747E0,9.609797001E0
3.446528792E0,1.901645508E0,-1.906136169E0,9.191037140E0,9.577305176E0
3.456546792E0,1.832040253E0,-1.955383759E0,9.195527802E0,9.577976231E0
3.466565792E0,1.799857178E0,-2.065404968E0,9.241781616E0,9.639289963E0
3.476583792E0,1.869013367E0,-2.207908630E0,9.336384888E0,9.774259780E0
3.486602792E0,1.941462708E0,-2.314487000E0,9.452842712E0,9.923828035E0
3.496620792E0,1.987716522E0,-2.409988403E0,9.530980225E0,1.002988759E1
3.506638792E0,2.032174072E0,-2.440674591E0,9.561067657E0,1.007475254E1
3.516658292E0,2.071093140E0,-2.399659882E0,9.585915985E0,1.009641420E1
3.526676292E0,2.081721039E0,-2.276915131E0,9.612111511E0,1.009507765E1
3.536695292E0,2.045346680E0,-2.125879211E0,9.525591431E0,9.971945526E0
3.546713292E0,1.987267456E0,-1.975442047E0,9.384734344E0,9.794122826E0
3.556732292E0,1.944007416E0,-1.859732666E0,9.238039398E0,9.621805566E0
3.566750292E0,1.902843018E0,-1.784888306E0,9.110354919E0,9.476560799E0
3.576768292E0,1.845961304E0,-1.778002625E0,8.991951141E0,9.350082983E0
3.586787292E0,1.816622314E0,-1.799857178E0,8.901988220E0,9.262019044E0
3.596805292E0,1.814526672E0,-1.815574493E0,8.889713745E0,9.252882159E0
3.606824292E0,1.824256439E0,-1.830543365E0,8.984915771E0,9.349198468E0
3.616842292E0,1.822011108E0,-1.874402161E0,9.160650330E0,9.526312109E0
3.626861292E0,1.792372742E0,-1.951641541E0,9.414223022E0,9.780035780E0
3.636879292E0,1.778601379E0,-2.025438080E0,9.648635559E0,1.001808317E1
3.646897292E0,1.793719940E0,-2.057920532E0,9.823621674E0,1.019588206E1
3.656916292E0,1.813029785E0,-2.060465240E0,9.923164673E0,1.029571713E1
3.666934292E0,1.802850952E0,-2.068099365E0,9.894723816E0,1.026805074E1
3.676953292E0,1.839824066E0,-2.058668976E0,9.804910583E0,1.018623297E1
3.686971292E0,1.883982239E0,-1.989512787E0,9.671837311E0,1.005246175E1
3.696990292E0,1.934876404E0,-1.897154846E0,9.500593414E0,9.879484725E0
3.707008292E0,1.957629089E0,-1.819167023E0,9.301058350E0,9.677363625E0
3.717026292E0,1.949845276E0,-1.819915466E0,9.128916321E0,9.510578431E0
3.727045292E0,1.938917999E0,-1.886377258E0,8.990454254E0,9.388614907E0
3.737063292E0,1.926194458E0,-1.948198700E0,8.905730438E0,9.317603657E0
3.747082292E0,1.890418854E0,-1.981579285E0,8.854536896E0,9.268395953E0
3.757100292E0,1.882036285E0,-2.014660492E0,8.860374756E0,9.279394285E0
3.767118292E0,1.872755585E0,-2.042801971E0,8.948391724E0,9.367708781E0
3.777137292E0,1.916764069E0,-2.068997498E0,9.143735504E0,9.568836612E0
3.787155292E0,1.921105042E0,-2.076931000E0,9.373358002E0,9.791022786E0
3.797174292E0,1.917362823E0,-2.093995514E0,9.571396179E0,9.983622701E0
3.807192292E0,1.899100800E0,-2.131866760E0,9.729168091E0,1.013943546E1
3.817211292E0,1.855242004E0,-2.188000031E0,9.832752686E0,1.024267018E1
3.827229292E0,1.843715973E0,-2.257754974E0,9.888885956E0,1.030954953E1
3.837247292E0,1.872007141E0,-2.291135559E0,9.915829926E0,1.034782083E1
3.847266292E0,1.944456482E0,-2.241438904E0,9.914632416E0,1.034914950E1
3.857284292E0,1.975142670E0,-2.141895905E0,9.797276459E0,1.022132734E1
3.867303292E0,1.926643524E0,-2.050885162E0,9.530231781E0,9.936971521E0
3.877321292E0,1.871857452E0,-1.978585510E0,9.240584106E0,9.633641345E0
3.887340292E0,1.823957062E0,-1.939516754E0,9.046737213E0,9.430376387E0
3.897358292E0,1.797911224E0,-1.895807648E0,8.962462463E0,9.335539878E0
3.907376292E0,1.785337372E0,-1.861079865E0,8.967701569E0,9.331169231E0
3.917395292E0,1.802401886E0,-1.848655701E0,9.021739197E0,9.383920215E0
3.927413292E0,1.863774261E0,-1.885628815E0,9.105265503E0,9.483412382E0
3.937432292E0,1.895208893E0,-1.958826599E0,9.195976868E0,9.591392440E0
3.947450292E0,1.892813873E0,-2.042951660E0,9.339528351E0,9.745931749E0
3.957468292E0,1.898651733E0,-2.058818665E0,9.514664154E0,9.918288495E0
3.967487292E0,1.894310760E0,-2.003583527E0,9.681716766E0,1.006669756E1
3.977505292E0,1.872755585E0,-1.930236053E0,9.784702606E0,1.014758246E1
3.987524292E0,1.853296051E0,-1.879491577E0,9.828711090E0,1.017697187E1
3.997542292E0,1.827848969E0,-1.843715973E0,9.791139221E0,1.012949790E1
4.007561292E0,1.782343597E0,-1.794019318E0,9.680219879E0,1.000509425E1
4.017579292E0,1.712438965E0,-1.734143829E0,9.521549835E0,9.828510228E0
4.027597292E0,1.662592621E0,-1.696422272E0,9.349707184E0,9.646713802E0
4.037616292E0,1.647174683E0,-1.700613556E0,9.242979126E0,9.541380090E0
4.047634292E0,1.623074799E0,-1.738185425E0,9.403146057E0,9.699217295E0
4.057653292E0,1.613794098E0,-1.792672119E0,9.559570770E0,9.859178365E0
4.067671292E0,1.692680054E0,-1.827100525E0,9.585766296E0,9.904058642E0
4.077690292E0,1.847907257E0,-1.866169281E0,9.456734619E0,9.814641036E0
4.087708292E0,2.033521271E0,-1.957479401E0,9.250313873E0,9.671361906E0
4.097726292E0,2.162103882E0,-1.991309052E0,9.213640137E0,9.671151405E0
4.107745292E0,2.135908356E0,-1.918560333E0,9.306746521E0,9.739533308E0
4.117763292E0,2.016606445E0,-1.880389709E0,9.377998352E0,9.774938368E0
4.127782292E0,1.895059204E0,-1.891766052E0,9.422156525E0,9.795257105E0
4.137800292E0,1.828148346E0,-1.956581268E0,9.419761505E0,9.792969082E0
4.147819292E0,1.835483093E0,-2.045496368E0,9.385482788E0,9.779587964E0
4.157837292E0,1.898801422E0,-2.107168121E0,9.376651154E0,9.796284560E0
4.167855292E0,1.941612396E0,-2.094743958E0,9.428443451E0,9.851566213E0
4.177874292E0,1.953587494E0,-2.019899597E0,9.504784698E0,9.911479740E0
4.187892292E0,1.942809906E0,-1.956132202E0,9.521100769E0,9.912230999E0
4.197911292E0,1.943408661E0,-1.912273407E0,9.495054932E0,9.878749666E0
4.207929292E0,1.965861969E0,-1.900597687E0,9.440717926E0,9.828735412E0
4.217947292E0,1.941163330E0,-1.910177765E0,9.338181152E0,9.727205220E0
4.227966292E0,1.888173523E0,-1.943708038E0,9.205556946E0,9.596117906E0
4.237984292E0,1.866318970E0,-1.997895355E0,9.137598267E0,9.537842231E0
4.248003292E0,1.882485352E0,-2.045047302E0,9.145082703E0,9.558164427E0
4.258021292E0,1.927841034E0,-2.050885162E0,9.242679749E0,9.661771573E0
4.268040292E0,1.992656250E0,-2.032473450E0,9.375753021E0,9.798284134E0
4.278058292E0,2.011966095E0,-2.014361115E0,9.469607849E0,9.888333079E0
4.288076292E0,2.024240570E0,-2.008373566E0,9.552385712E0,9.968911026E0
4.298095292E0,2.016157379E0,-2.023492126E0,9.616302795E0,1.003158464E1
4.308113292E0,1.999242554E0,-2.052531738E0,9.623637543E0,1.004112827E1
4.318132292E0,1.971699829E0,-2.091450806E0,9.577084351E0,9.999115528E0
4.328150292E0,1.951342163E0,-2.085313568E0,9.494156799E0,9.914397725E0
4.338168292E0,1.929786987E0,-2.061662750E0,9.427245941E0,9.841112597E0
4.348187292E0,1.864073639E0,-2.031725006E0,9.359886017E0,9.757568513E0
4.358205292E0,1.828747101E0,-1.995650024E0,9.281449127E0,9.668103893E0
4.368224292E0,1.810934143E0,-1.951342163E0,9.246721344E0,9.622321670E0
4.378242292E0,1.784888306E0,-1.872755585E0,9.249116364E0,9.604123763E0
4.388261292E0,1.742676086E0,-1.793869629E0,9.290131073E0,9.620884759E0
4.398279292E0,1.706152039E0,-1.722617798E0,9.346863098E0,9.656200942E0
4.408297292E0,1.660796356E0,-1.693278809E0,9.412426758E0,9.706658289E0
4.418316292E0,1.618733826E0,-1.726210327E0,9.461824036E0,9.753266908E0
4.428334292E0,1.633253632E0,-1.771416321E0,9.487570496E0,9.788739812E0
4.438353292E0,1.681752777E0,-1.798809357E0,9.460776215E0,9.776006040E0
4.448371292E0,1.707050171E0,-1.834285583E0,9.401349792E0,9.729542734E0
4.458390292E0,1.738035736E0,-1.905986481E0,9.367220764E0,9.715882746E0
4.468408292E0,1.835932159E0,-1.995051270E0,9.388027496E0,9.771690577E0
4.478426292E0,1.905537415E0,-2.100132751E0,9.412277069E0,9.830187691E0
4.488445292E0,1.914818115E0,-2.214195557E0,9.441017303E0,9.884432108E0
4.498463292E0,1.957479401E0,-2.278412018E0,9.467661896E0,9.932749302E0
4.508482292E0,2.031126251E0,-2.211501160E0,9.532028046E0,9.993786564E0
4.518500042E0,2.094294891E0,-2.066602478E0,9.570198669E0,1.001227344E1
4.528518042E0,2.092947693E0,-1.955084381E0,9.515412598E0,9.937095244E0
4.538537042E0,2.067949677E0,-1.869612122E0,9.383536835E0,9.788903354E0
4.548555042E0,2.045196991E0,-1.813029785E0,9.241332550E0,9.637018991E0
4.558574042E0,2.032323761E0,-1.802701263E0,9.189540253E0,9.582678215E0
4.568592042E0,2.030677185E0,-1.812431030E0,9.226812744E0,9.619907977E0
4.578611042E0,1.988764343E0,-1.850901031E0,9.308243408E0,9.696618668E0
4.588629042E0,1.885778503E0,-1.931882629E0,9.347162476E0,9.729222857E0
4.598647042E0,1.869761810E0,-1.971550140E0,9.375753021E0,9.761545159E0
4.608666042E0,1.897903290E0,-1.905387726E0,9.398805084E0,9.775994900E0
4.618684042E0,1.829196167E0,-1.830094299E0,9.321715393E0,9.674170850E0
4.628703042E0,1.754501495E0,-1.814676361E0,9.243278503E0,9.581728617E0
4.638721042E0,1.707798615E0,-1.821562042E0,9.326505432E0,9.654965974E0
4.648740042E0,1.649420013E0,-1.815125427E0,9.508526917E0,9.819742910E0
4.658758042E0,1.576072540E0,-1.799707489E0,9.655670929E0,9.947609401E0
4.668776042E0,1.503623199E0,-1.810634766E0,9.772128754E0,1.005155617E1
4.678795042E0,1.389111328E0,-1.832938385E0,9.870324554E0,1.013472250E1
4.688813042E0,1.288221130E0,-1.872755585E0,9.872420197E0,1.013071605E1
4.698832042E0,1.246158600E0,-1.900148621E0,9.798473969E0,1.005850725E1
4.708850042E0,1.252295837E0,-1.895807648E0,9.679172058E0,9.942268515E0
4.718868042E0,1.182091827E0,-1.892364807E0,9.551337891E0,9.808488220E0
4.728887042E0,1.133742371E0,-1.853146362E0,9.410181427E0,9.657693187E0
4.738905042E0,1.137334900E0,-1.786834259E0,9.351503448E0,9.588374424E0
4.748924042E0,1.205892334E0,-1.752555542E0,9.361682281E0,9.600350118E0
4.758942042E0,1.261277161E0,-1.773661652E0,9.409582672E0,9.657998850E0
4.768961042E0,1.269809418E0,-1.849404144E0,9.448501740E0,9.711173810E0
4.778979042E0,1.259331207E0,-1.901046753E0,9.474547577E0,9.745098544E0
4.788997042E0,1.260229340E0,-1.915566559E0,9.471853180E0,9.745438722E0
4.799016042E0,1.303040314E0,-1.912722473E0,9.489815826E0,9.767959139E0
4.809034042E0,1.341809692E0,-1.901944885E0,9.506580963E0,9.787386230E0
4.819053042E0,1.347198486E0,-1.912572784E0,9.484277344E0,9.768541096E0
4.829071042E0,1.354383545E0,-1.930834808E0,9.463171234E0,9.752645162E0
4.839090042E0,1.384321289E0,-1.948647766E0,9.484876099E0,9.781433850E0
4.849108042E0,1.400188293E0,-1.936822357E0,9.515711975E0,9.811247754E0
4.859126042E0,1.406475220E0,-1.921853485E0,9.516011353E0,9.809493637E0
4.869145042E0,1.443298645E0,-1.895059204E0,9.508975983E0,9.802804936E0
4.879163042E0,1.481768646E0,-1.880988464E0,9.476942596E0,9.774773496E0
4.889182042E0,1.503623199E0,-1.869612122E0,9.444609833E0,9.744587580E0
4.899200042E0,1.550775146E0,-1.892215118E0,9.459429016E0,9.770679553E0
4.909218042E0,1.586550751E0,-1.926493835E0,9.478589172E0,9.801641418E0
4.919237042E0,1.596130829E0,-1.952689362E0,9.490863647E0,9.820240432E0
4.929255042E0,1.529818726E0,-1.991159363E0,9.492959290E0,9.819436695E0
4.939274042E0,1.465602264E0,-2.002236328E0,9.544901276E0,9.862153957E0
4.949292042E0,1.416803741E0,-1.963766327E0,9.618099060E0,9.918242816E0
4.959311042E0,1.423539734E0,-1.898352356E0,9.706116028E0,9.991941522E0
4.969329042E0,1.444645844E0,-1.852547607E0,9.764794006E0,1.004341258E1
4.979347042E0,1.431473236E0,-1.897454224E0,9.750423889E0,1.003594610E1
4.989366042E0,1.372046814E0,-2.040257263E0,9.813442841E0,1.011675949E1
4.999384042E0,1.397194519E0,-2.150278473E0,9.942324829E0,1.026770047E1
5.009403042E0,1.527124329E0,-2.118694153E0,9.962383118E0,1.029903156E1
5.019421042E0,1.779200134E0,-2.042203217E0,9.904303894E0,1.026797851E1
5.029440042E0,2.001787262E0,-1.996697845E0,9.794282684E0,1.019421051E1
5.039458042E0,2.128274231E0,-2.007026367E0,9.579629059E0,1.001633660E1
5.049476042E0,2.320773926E0,-2.005529480E0,9.297316132E0,9.790210792E0
5.059495042E0,2.541564789E0,-1.874252472E0,8.629704437E0,9.189351042E0
5.069513042E0,2.587519226E0,-1.933379517E0,8.149802399E0,8.766555266E0
5.079532042E0,2.495460663E0,-2.114802246E0,8.041577454E0,8.681398528E0
5.089550042E0,2.494113464E0,-2.256407776E0,8.137677612E0,8.805326510E0
5.099569042E0,2.397414551E0,-2.359692993E0,8.336913300E0,8.989987259E0
5.109587042E0,2.287842407E0,-2.240391083E0,8.638236694E0,9.212638508E0
5.119605042E0,2.286944275E0,-2.066003723E0,8.985813904E0,9.499649310E0
5.129624042E0,2.274969177E0,-2.027084656E0,9.311835938E0,9.797695927E0
5.139642042E0,2.175426178E0,-2.094594269E0,9.595795441E0,1.005977606E1
5.149661042E0,2.019001465E0,-2.103725281E0,9.837243347E0,1.026028185E1
5.159679042E0,1.849104767E0,-2.070195007E0,9.977801056E0,1.035670844E1
5.169697042E0,1.674867096E0,-2.065255280E0,1.004770569E1,1.039359653E1
5.179716042E0,1.609902191E0,-2.109712830E0,1.012045441E1,1.046261300E1
5.189734042E0,1.667232971E0,-2.127675476E0,1.012913635E1,1.048360968E1
5.199753042E0,1.736838226E0,-2.117346954E0,9.996212769E0,1.036455667E1
5.209771042E0,1.835183716E0,-2.088606720E0,9.749525757E0,1.013821630E1
5.219790042E0,1.942061462E0,-2.051783295E0,9.442514191E0,9.856089065E0
5.229808042E0,2.082020416E0,-2.031425629E0,9.110654297E0,9.563760809E0
5.239826042E0,2.159259796E0,-2.054926758E0,8.822353821E0,9.312306577E0
5.249845042E0,2.212249603E0,-2.161654816E0,8.599617004E0,9.138939352E0
5.259863042E0,2.230511627E0,-2.270628204E0,8.494984589E0,9.071697621E0
5.269882042E0,2.259551239E0,-2.328557739E0,8.567284241E0,9.161119594E0
5.279900042E0,2.283800812E0,-2.282752991E0,8.782087555E0,9.356910237E0
5.289918042E0,2.248773651E0,-2.168839874E0,9.083860016E0,9.606110666E0
5.299937042E0,2.141446838E0,-2.070195007E0,9.396260376E0,9.857038652E0
5.309955042E0,1.980980530E0,-2.038760376E0,9.685458984E0,1.009400532E1
5.319974042E0,1.893562317E0,-2.024989014E0,9.893975372E0,1.027506240E1
5.329992042E0,1.856140137E0,-2.027982788E0,1.001986359E1,1.039017020E1
5.340011042E0,1.798959045E0,-2.069895630E0,9.978848877E0,1.034882343E1
5.350029042E0,1.770967255E0,-2.116897888E0,9.858050079E0,1.023712523E1
5.360047042E0,1.803000641E0,-2.088457031E0,9.618847504E0,1.000673230E1
5.370066042E0,1.822310486E0,-1.967059479E0,9.350904694E0,9.727772463E0
5.380084042E0,1.883533173E0,-1.885928192E0,9.165440369E0,9.545141147E0
5.390103042E0,2.041754150E0,-1.902393951E0,9.058862000E0,9.478968482E0
5.400121042E0,2.228715363E0,-2.007924500E0,8.991202698E0,9.478431248E0
5.410140042E0,2.339784393E0,-2.098486176E0,8.920100555E0,9.457612233E0
5.420158042E0,2.359094238E0,-2.123633881E0,8.849896545E0,9.401904879E0
5.430176042E0,2.287992096E0,-2.087259521E0,8.817264404E0,9.345357763E0
5.440195042E0,2.217189331E0,-2.036664734E0,8.873547363E0,9.370366833E0
5.450213042E0,2.103575592E0,-1.986519012E0,8.977281647E0,9.432013243E0
5.460232042E0,1.964065704E0,-1.957928467E0,9.123228149E0,9.535424995E0
5.470250042E0,1.779499512E0,-1.932331696E0,9.271419983E0,9.636376539E0
5.480268042E0,1.581910400E0,-1.880539398E0,9.415719910E0,9.731117632E0
5.490287042E0,1.448986816E0,-1.830992432E0,9.571545868E0,9.852237633E0
5.500305042E0,1.432221680E0,-1.802701263E0,9.728868713E0,9.997593572E0
5.510324042E0,1.472937012E0,-1.788031769E0,9.884395294E0,1.015223480E1
5.520345667E0,1.571282501E0,-1.815125427E0,9.996961212E0,1.028118877E1
5.530364667E0,1.745220795E0,-1.902693329E0,1.007090744E1,1.039659628E1
5.540382667E0,1.972448273E0,-2.017055511E0,1.010279114E1,1.048930188E1
5.550400667E0,2.207609253E0,-2.092348938E0,1.003348526E1,1.048438311E1
5.560419667E0,2.372715912E0,-2.122735748E0,9.824070740E0,1.032705930E1
5.570437667E0,2.454146576E0,-2.127376099E0,9.510023804E0,1.004933417E1
5.580456667E0,2.455793152E0,-2.084265747E0,9.154513092E0,9.704648044E0
5.590474667E0,2.486179962E0,-2.043999481E0,8.858129425E0,9.424727136E0
5.600493667E0,2.556833038E0,-1.991458740E0,8.663234711E0,9.249591275E0
5.610511667E0,2.642454987E0,-1.945204926E0,8.568631439E0,9.175392923E0
5.620529667E0,2.671644287E0,-1.955533447E0,8.611143036E0,9.225702068E0
5.630548667E0,2.617456970E0,-2.025737457E0,8.761430511E0,9.365754526E0
5.640566667E0,2.516417084E0,-2.083367615E0,8.978778534E0,9.554644919E0
5.650585667E0,2.390379181E0,-2.119891663E0,9.259744263E0,9.795443691E0
5.660603667E0,2.283202057E0,-2.132615204E0,9.525890808E0,1.002515112E1
5.670622667E0,2.167492676E0,-2.119592285E0,9.726473694E0,1.018798245E1
5.680640667E0,2.066153412E0,-2.064057770E0,9.802964630E0,1.022875554E1
5.690658667E0,1.982028351E0,-1.978884888E0,9.805509338E0,1.019766812E1
5.700677667E0,1.944157104E0,-1.918710022E0,9.765243073E0,1.014007728E1
5.710695667E0,1.944157104E0,-1.883233795E0,9.681866455E0,1.005310173E1
5.720714667E0,1.985471191E0,-1.900298309E0,9.573491821E0,9.960169435E0
5.730732667E0,1.996099091E0,-2.038011932E0,9.377698975E0,9.801996851E0
5.740750667E0,1.979483643E0,-2.205214233E0,9.141789551E0,9.610080202E0
5.750769667E0,2.030826874E0,-2.310744781E0,8.959169312E0,9.472619173E0
5.760787667E0,2.158661041E0,-2.239343262E0,8.901688843E0,9.429450673E0
5.770806667E0,2.240989838E0,-2.090402985E0,8.950038300E0,9.460180001E0
5.780824667E0,2.218686218E0,-1.973945160E0,9.097930756E0,9.570338137E0
5.790843667E0,2.157613220E0,-1.900897064E0,9.282047882E0,9.717258736E0
5.800861667E0,2.082768860E0,-1.883682861E0,9.487420807E0,9.894308506E0
5.810879667E0,1.989063721E0,-1.873653717E0,9.658215637E0,1.003733441E1
5.820898667E0,1.934127960E0,-1.893412628E0,9.765093384E0,1.013325768E1
5.830916667E0,1.900148621E0,-1.911524963E0,9.771380310E0,1.013628954E1
5.840935667E0,1.841021576E0,-1.938618622E0,9.684111786E0,1.004637366E1
5.850953667E0,1.780846710E0,-2.015558624E0,9.551337891E0,9.922799357E0
5.860971667E0,1.800306244E0,-2.133363647E0,9.430389404E0,9.834865904E0
5.870990667E0,1.888921967E0,-2.228415985E0,9.368118896E0,9.813027854E0
5.881008667E0,1.969005432E0,-2.276615753E0,9.337881775E0,9.811014103E0
5.891027667E0,2.012714539E0,-2.233206024E0,9.261540527E0,9.737266654E0
5.901045667E0,2.027982788E0,-2.154320068E0,9.170230408E0,9.635711436E0
5.911064667E0,2.023791504E0,-2.067051544E0,9.101074219E0,9.549763666E0
5.921082667E0,2.035467224E0,-1.972298584E0,9.053024139E0,9.486323555E0
5.931100667E0,2.057920532E0,-1.915865936E0,9.014105072E0,9.442439804E0
5.941119667E0,2.036215668E0,-1.919009399E0,9.012458496E0,9.436799217E0
5.951137667E0,1.975591736E0,-1.983375549E0,9.085955658E0,9.507435590E0
5.961156667E0,1.917063446E0,-2.048490143E0,9.224118347E0,9.641359002E0
5.971174667E0,1.845961304E0,-2.102228394E0,9.401948547E0,9.809361541E0
5.981193667E0,1.789378967E0,-2.136357422E0,9.539512482E0,9.938219081E0
5.991211667E0,1.764231262E0,-2.115850067E0,9.641600189E0,1.002745170E1
6.001229667E0,1.774709473E0,-2.042502594E0,9.677226105E0,1.004838871E1
6.011248667E0,1.773961029E0,-1.993554382E0,9.624236298E0,9.987348052E0
6.021266667E0,1.799108734E0,-1.967358856E0,9.558672638E0,9.923483043E0
6.031285667E0,1.890568542E0,-1.975741425E0,9.479038239E0,9.865595244E0
6.041303667E0,1.982477417E0,-1.995799713E0,9.413923645E0,9.825242572E0
6.051322667E0,2.038161621E0,-2.045795746E0,9.327702942E0,9.764498205E0
6.061340667E0,2.038610687E0,-2.130968628E0,9.236692200E0,9.696052992E0
6.071358667E0,2.074386292E0,-2.130220184E0,9.189839630E0,9.658885492E0
6.081377667E0,2.186802521E0,-2.066153412E0,9.201814728E0,9.681140918E0
6.091395667E0,2.259850616E0,-2.031425629E0,9.227710876E0,9.715156350E0
6.101414667E0,2.229463806E0,-2.044149170E0,9.256451111E0,9.738117983E0
6.111432667E0,2.229912872E0,-2.083517303E0,9.284592590E0,9.773290917E0
6.121450667E0,2.208657074E0,-2.111658783E0,9.319470062E0,9.807639427E0
6.131469667E0,2.114502869E0,-2.155816956E0,9.303453369E0,9.781253177E0
6.141487667E0,2.049687653E0,-2.163900146E0,9.313033447E0,9.778357495E0
6.151506667E0,1.993255005E0,-2.121388550E0,9.310189362E0,9.754638940E0
6.161524667E0,1.974992981E0,-2.070344696E0,9.281149750E0,9.712191571E0
6.171543667E0,2.031575317E0,-2.066602478E0,9.242230682E0,9.685916170E0
6.181561667E0,1.995051270E0,-2.061363373E0,9.218430176E0,9.654475824E0
6.191579667E0,1.881886597E0,-2.036515045E0,9.243128815E0,9.650094351E0
6.201598667E0,1.803749084E0,-2.066303101E0,9.375303955E0,9.768287645E0
6.211616667E0,1.754800873E0,-2.128423920E0,9.633217621E0,1.002039900E1
6.221635667E0,1.729503479E0,-2.144290924E0,9.948761444E0,1.032313035E1
6.231653667E0,1.721569977E0,-2.089355164E0,1.011716125E1,1.047311606E1
6.241672667E0,1.818119202E0,-2.039508820E0,1.009500732E1,1.045821813E1
6.251690667E0,1.982028351E0,-2.034269714E0,9.955647125E0,1.035285465E1
6.261708667E0,2.188898163E0,-2.053579559E0,9.766590271E0,1.021737489E1
6.271727667E0,2.389780426E0,-2.093247070E0,9.487121429E0,1.000490913E1
6.281745667E0,2.521656189E0,-2.124382324E0,9.160350952E0,9.735696162E0
6.291764667E0,2.541564789E0,-2.133962402E0,8.854237518E0,9.455732079E0
6.301782667E0,2.516716461E0,-2.111958160E0,8.600964203E0,9.207106725E0
6.311800667E0,2.479144592E0,-2.080972595E0,8.446335754E0,9.045285652E0
6.321819667E0,2.442919922E0,-2.067949677E0,8.429420929E0,9.016618591E0
6.331837667E0,2.398911438E0,-2.061363373E0,8.512647858E0,9.081253690E0
6.341856667E0,2.331252136E0,-2.088606720E0,8.698411560E0,9.244424169E0
6.351874667E0,2.228116608E0,-2.138003998E0,8.959468689E0,9.476689501E0
6.361893667E0,2.118245087E0,-2.179767151E0,9.261241150E0,9.747252675E0
6.371911667E0,2.032772827E0,-2.184557190E0,9.567953339E0,1.002248405E1
6.381929667E0,1.935325470E0,-2.124232635E0,9.801168365E0,1.021375300E1
6.391948667E0,1.813628540E0,-2.088157654E0,9.859546967E0,1.024013268E1
6.401966667E0,1.626367950E0,-2.072290649E0,9.682165833E0,1.003413157E1
6.411985667E0,1.382075958E0,-2.050585785E0,9.338929596E0,9.660778541E0
6.422003667E0,1.074166260E0,-2.066602478E0,9.029073944E0,9.324637003E0
6.432022667E0,9.190887451E-1,-2.133663025E0,8.911568298E0,9.209413204E0
6.442040667E0,1.237027588E0,-2.268682251E0,8.928782501E0,9.295176887E0
6.452058667E0,1.733096008E0,-2.320773926E0,9.180708618E0,9.626786801E0
6.462077667E0,2.369273071E0,-2.411036224E0,9.715247040E0,1.028652398E1
6.472095667E0,2.858904877E0,-2.552941132E0,1.034738251E1,1.103445378E1
6.482114667E0,3.026556244E0,-2.664010162E0,1.078237793E1,1.151158836E1
6.492132667E0,2.937192078E0,-2.724334717E0,1.084330124E1,1.155968333E1
6.502151667E0,2.703378296E0,-2.613714752E0,1.050874695E1,1.116125089E1
6.512166542E0,2.534679108E0,-2.380649414E0,9.943522339E0,1.053402707E1
6.522184542E0,2.522105255E0,-2.150428162E0,9.275461578E0,9.849849932E0
6.532203542E0,2.618205414E0,-2.011666718E0,8.654403076E0,9.262855671E0
6.542221542E0,2.718796234E0,-2.008074188E0,8.288114777E0,8.950813452E0
6.552240542E0,2.684367828E0,-1.887125702E0,8.219257965E0,8.850043816E0
6.562258542E0,2.651136932E0,-1.705403595E0,7.979756012E0,8.579827182E0
6.572277542E0,2.773133240E0,-1.540446625E0,7.946525116E0,8.556313762E0
6.582295542E0,2.940335541E0,-1.396595764E0,8.247399445E0,8.866546702E0
6.592313542E0,3.060535583E0,-1.287772064E0,8.698411560E0,9.310617521E0
6.602332542E0,3.015628967E0,-1.313069458E0,9.182055817E0,9.753374723E0
6.612350542E0,2.738704834E0,-1.427281952E0,9.579629059E0,1.006513442E1
6.622369542E0,2.360740814E0,-1.501377869E0,9.830806732E0,1.022115423E1
6.632387542E0,2.031874695E0,-1.463506622E0,9.890682220E0,1.020274283E1
6.642405542E0,1.842069397E0,-1.342558136E0,9.804012451E0,1.006550258E1
6.652424542E0,1.702409821E0,-1.177601166E0,9.649833069E0,9.869357728E0
6.662442542E0,1.596430206E0,-1.031205597E0,9.498946838E0,9.687206276E0
6.672461542E0,1.531465302E0,-9.657916260E-1,9.399852905E0,9.572636736E0
6.682479542E0,1.561103668E0,-9.960287476E-1,9.430090027E0,9.610188127E0
6.692498542E0,1.723815308E0,-1.148561554E0,9.519454193E0,9.742214378E0
6.702516542E0,1.930086365E0,-1.368603973E0,9.638307037E0,9.924478463E0
6.712534542E0,2.120191040E0,-1.583556976E0,9.697883148E0,1.005245245E1
6.722553542E0,2.289339294E0,-1.792522430E0,9.654623108E0,1.008295385E1
6.732571542E0,2.417323151E0,-1.961071930E0,9.449100494E0,9.948605655E0
6.742590542E0,2.527643738E0,-1.977088623E0,9.174870758E0,9.719882495E0
6.752608542E0,2.676134949E0,-1.818717957E0,8.962312775E0,9.528508988E0
6.762627542E0,2.841690674E0,-1.753004608E0,8.860973511E0,9.469164831E0
6.772645542E0,3.026705933E0,-1.768572235E0,8.917705536E0,9.581976236E0
6.782663542E0,3.078797607E0,-1.825903015E0,9.043144684E0,9.725810110E0
6.792682542E0,2.975811768E0,-1.882485352E0,9.146878967E0,9.801255104E0
6.802700542E0,2.842289429E0,-1.869312744E0,9.160500641E0,9.771781379E0
6.812719542E0,2.650089111E0,-1.896406403E0,9.125174103E0,9.689588843E0
6.822737542E0,2.435585175E0,-2.001188507E0,9.031918030E0,9.566210006E0
6.832755542E0,2.257904663E0,-2.160906372E0,9.015452271E0,9.541804308E0
6.842774542E0,2.386337585E0,-2.499352570E0,9.005123749E0,9.645393930E0
6.852792542E0,2.446811829E0,-2.750829620E0,8.706195374E0,9.452607556E0
6.862811542E0,2.365381165E0,-2.671943665E0,8.555309143E0,9.269715504E0
6.872829542E0,2.327360229E0,-2.441423035E0,8.759783936E0,9.386744200E0
6.882848542E0,2.342778168E0,-2.036515045E0,8.921148376E0,9.445786967E0
6.892866542E0,2.292333069E0,-1.518891449E0,8.678652649E0,9.103891142E0
6.902884542E0,2.114652557E0,-1.274599457E0,8.389603729E0,8.745387924E0
6.912903542E0,1.796564026E0,-1.244212646E0,8.374634857E0,8.655068827E0
6.922921542E0,1.617835693E0,-1.286125488E0,8.967402191E0,9.202489509E0
6.932940542E0,1.674418030E0,-1.347797241E0,9.815089417E0,1.004769692E1
6.942958542E0,1.459165649E0,-1.433868256E0,1.017718643E1,1.038076424E1
6.952977542E0,9.193881226E-1,-1.516047363E0,1.024978546E1,1.040200827E1
6.962995542E0,4.403842163E-1,-1.475182343E0,1.010533585E1,1.022193298E1
6.973013542E0,2.398013306E-1,-1.393751678E0,1.012674133E1,1.022501533E1
6.983032542E0,1.908531189E-1,-1.359922028E0,1.034453842E1,1.043529051E1
6.993050542E0,1.401086426E-1,-1.325493622E0,1.025262955E1,1.033890596E1
7.003069542E0,-4.326004028E-2,-1.451531525E0,9.798024902E0,9.905054628E0
7.013087542E0,-4.790039063E-2,-1.573527832E0,9.510472870E0,9.639884776E0
7.023106542E0,-7.469467163E-2,-1.781894531E0,9.707163849E0,9.869638160E0
7.033124542E0,-2.215393066E-1,-2.114951935E0,1.030157776E1,1.051877396E1
7.043142542E0,-2.823129272E-1,-2.487527161E0,1.015712814E1,1.046110626E1
7.053161542E0,-3.664379883E-1,-2.805166626E0,9.576934662E0,9.986035956E0
7.063179542E0,-2.788700867E-1,-2.847378845E0,8.952732697E0,9.398763618E0
7.073198542E0,-1.945953369E-3,-2.607427826E0,8.611592102E0,8.997677600E0
7.083216542E0,5.325924683E-1,-2.184856567E0,8.785680084E0,9.068926480E0
7.093235542E0,7.472460938E-1,-1.666185150E0,9.329948273E0,9.506970309E0
7.103253542E0,4.501139832E-1,-1.420845337E0,9.751471710E0,9.864715129E0
7.113271542E0,-3.683839417E-1,-1.550924835E0,9.924212494E0,1.005142120E1
7.123290542E0,-7.481442261E-1,-1.716929626E0,1.012255005E1,1.029434731E1
7.133308542E0,-7.482939148E-1,-1.916015625E0,1.009919861E1,1.030654511E1
7.143327542E0,-7.036866760E-1,-2.210752716E0,9.730066223E0,1.000283916E1
7.153345542E0,-7.258406067E-1,-2.454595642E0,9.532776489E0,9.870446390E0
7.163363542E0,-7.643106079E-1,-2.586022339E0,9.448950806E0,9.826207487E0
7.173382542E0,-7.418572998E-1,-2.600691833E0,9.232500916E0,9.620448192E0
7.183400542E0,-6.568341064E-1,-2.580633545E0,8.932375031E0,9.320859629E0
7.193419542E0,-6.057902527E-1,-2.567161560E0,8.774004364E0,9.161902253E0
7.203437542E0,-6.869215393E-1,-2.578388214E0,8.934470673E0,9.324414898E0
7.213456542E0,-8.831634521E-1,-2.541265411E0,9.367520142E0,9.746201372E0
7.223474542E0,-1.078357544E0,-2.157613220E0,9.946366425E0,1.023466437E1
7.233492542E0,-1.487307129E0,-2.282902679E0,1.002540207E1,1.038905259E1
7.243511542E0,-1.426383820E0,-2.616558838E0,9.850565643E0,1.029148164E1
7.253529542E0,-1.258433075E0,-2.763702850E0,9.516161041E0,9.988945300E0
7.263548542E0,-1.134191437E0,-2.805166626E0,9.430688782E0,9.904203194E0
7.273566542E0,-1.103654938E0,-2.853067017E0,9.429640961E0,9.913434030E0
7.283585542E0,-1.189725952E0,-3.018323364E0,9.388775940E0,9.933520898E0
7.293603542E0,-1.142723694E0,-3.123255157E0,9.397008820E0,9.968165076E0
7.303621542E0,-1.051263885E0,-3.135978699E0,9.594448242E0,1.014854449E1
7.313640542E0,-9.696835327E-1,-3.048710175E0,9.967921600E0,1.046873349E1
7.323658542E0,-1.083896027E0,-2.766397247E0,1.011626312E1,1.054355556E1
7.333677542E0,-1.268761597E0,-2.449206848E0,9.855355682E0,1.023408060E1
7.343695542E0,-1.609902191E0,-2.311343536E0,9.422755280E0,9.834755262E0
7.353714542E0,-1.658850403E0,-2.376757507E0,9.176816711E0,9.623654496E0
7.363732542E0,-1.557960205E0,-2.634222107E0,9.204658813E0,9.700108761E0
7.373750542E0,-1.474882965E0,-2.829266510E0,9.284592590E0,9.817519458E0
7.383769542E0,-1.318907318E0,-2.628084869E0,9.300758972E0,9.754509934E0
7.393787542E0,-1.084045715E0,-2.318079529E0,9.388775940E0,9.731277484E0
7.403806542E0,-1.140628052E0,-2.084565125E0,9.255852356E0,9.556005805E0
7.413824542E0,-1.180445251E0,-1.921404419E0,9.197922821E0,9.470323656E0
7.423843542E0,-1.342408447E0,-1.730401611E0,9.244925079E0,9.500788909E0
7.433861542E0,-1.471290436E0,-1.305285645E0,9.202114105E0,9.409961220E0
7.443879542E0,-1.453776855E0,-8.593629456E-1,9.028774567E0,9.185354756E0
7.453898542E0,-1.413360901E0,-4.625381470E-1,9.080267487E0,9.201238406E0
7.463916542E0,-1.259780273E0,-2.152523804E-1,9.309291229E0,9.396610193E0
7.473935542E0,-1.002914429E0,-2.764750671E-1,9.663454742E0,9.719291814E0
7.483953542E0,-8.187973022E-1,-5.849835205E-1,1.023272095E1,1.028208212E1
7.493972542E0,-9.759704590E-1,-1.288221130E0,1.068148773E1,1.080306494E1
7.503990542E0,-1.389410706E0,-1.780996399E0,1.037178177E1,1.061490779E1
7.514008167E0,-1.788929901E0,-2.165995789E0,9.827663269E0,1.022129020E1
7.524027167E0,-1.792223053E0,-2.120490417E0,9.558223572E0,9.953300002E0
7.534045167E0,-1.362466736E0,-2.020049286E0,9.385632477E0,9.696752638E0
7.544064167E0,-7.831713867E-1,-2.339784393E0,9.362430725E0,9.682099850E0
7.554082167E0,-2.571652222E-1,-2.842139740E0,9.521849213E0,9.940297012E0
7.564100167E0,1.740879822E-1,-3.303929443E0,9.870923309E0,1.041063799E1
7.574119167E0,3.132984924E-1,-3.429218903E0,1.045291306E1,1.100550270E1
7.584137167E0,-5.852828979E-2,-3.566184082E0,1.046458878E1,1.105570951E1
7.594156167E0,-4.766088867E-1,-3.287463684E0,1.021954834E1,1.074587092E1
7.604174167E0,-4.480183411E-1,-2.444865875E0,1.001791763E1,1.032166475E1
7.614193167E0,-2.803669739E-1,-1.620230713E0,1.041474243E1,1.054374758E1
7.624211167E0,-3.459306335E-1,-1.161434784E0,1.104897354E1,1.111523347E1
7.634229167E0,-2.139051819E-1,-1.039588165E0,1.141840530E1,1.146762742E1
7.644248167E0,4.640350342E-3,-1.130598907E0,1.216086136E1,1.221330522E1
7.654266167E0,2.972817993E-1,-1.398990784E0,1.324101517E1,1.331803418E1
7.664285167E0,2.746788025E-1,-2.133064270E0,1.384935013E1,1.401534554E1
7.674303167E0,-8.187973022E-2,-2.821183319E0,1.349862946E1,1.379053214E1
7.684322167E0,-5.484594727E-1,-3.362158356E0,1.265543289E1,1.310591081E1
7.694340167E0,-4.290078735E-1,-3.401227112E0,1.171149582E1,1.220293112E1
7.704358167E0,-1.721420288E-2,-3.090623016E0,1.083282303E1,1.126509218E1
7.714377167E0,5.074447632E-2,-3.045716400E0,1.034274216E1,1.078198863E1
7.724395167E0,-9.490264893E-2,-3.166964264E0,1.012808853E1,1.061210848E1
7.734414167E0,-1.589694214E-1,-3.167263641E0,9.912087708E0,1.040703190E1
7.744432167E0,-2.122586060E-1,-3.036286011E0,9.653874664E0,1.012232100E1
7.754451167E0,-2.380050659E-1,-2.884351959E0,9.395212555E0,9.830877458E0
7.764469167E0,-4.152365112E-1,-2.876867523E0,9.152716827E0,9.603177257E0
7.774487167E0,-8.680448914E-1,-3.084635468E0,9.098679199E0,9.646472986E0
7.784506167E0,-1.408271484E0,-3.232976990E0,9.266330566E0,9.914648302E0
7.794524167E0,-1.765129395E0,-3.231480103E0,9.419312439E0,1.011343622E1
7.804543167E0,-1.395847321E0,-2.791095886E0,9.922565918E0,1.040172680E1
7.814561167E0,-1.170715485E0,-2.368524628E0,1.077983322E1,1.109888679E1
7.824580167E0,-1.013242950E0,-1.965113525E0,1.148546585E1,1.169633525E1
7.834598167E0,-8.887019348E-1,-1.742975464E0,1.159533737E1,1.175923481E1
7.844616167E0,-6.490502930E-1,-1.704655151E0,1.091784622E1,1.106916806E1
7.854635167E0,-5.330415344E-1,-1.864373016E0,1.021954834E1,1.040188388E1
7.864653167E0,-5.650749207E-1,-2.145787811E0,9.909093933E0,1.015449938E1
7.874672167E0,-6.186634827E-1,-2.410587158E0,9.701775055E0,1.001589308E1
7.884690167E0,-6.484515381E-1,-2.673440552E0,9.480834503E0,9.871879084E0
7.894709167E0,-5.771997070E-1,-2.824775848E0,9.303453369E0,9.739957017E0
7.904727167E0,-5.640270996E-1,-2.985092468E0,9.555978241E0,1.002724408E1
7.914745167E0,-4.625381470E-1,-2.833008728E0,1.013452515E1,1.053320844E1
7.924764167E0,-2.908451843E-1,-2.624642029E0,1.050784882E1,1.083458460E1
7.934782167E0,-1.532812500E-1,-2.546354828E0,1.048569489E1,1.079153443E1
7.944801167E0,-6.286926270E-2,-2.425855408E0,1.012329849E1,1.041008642E1
7.954819167E0,-9.849517822E-2,-2.273172913E0,9.633666687E0,9.898714574E0
7.964838167E0,-4.655319214E-2,-2.245929565E0,9.035510559E0,9.310575593E0
7.974856167E0,2.844085693E-2,-2.304308167E0,8.737480316E0,9.036271758E0
7.984874167E0,1.751358032E-2,-2.435435486E0,9.015003204E0,9.338197658E0
7.994893167E0,-1.326242065E-1,-2.452350311E0,9.336534576E0,9.654143625E0
8.004911167E0,-1.886077881E-1,-2.499352570E0,9.350006561E0,9.680132172E0
8.014930167E0,-1.595681763E-1,-2.790497131E0,9.058562622E0,9.479973261E0
8.024948167E0,-2.868035889E-1,-2.799628143E0,8.893006897E0,9.327687050E0
8.034967167E0,-3.275189209E-1,-2.729274445E0,9.009464722E0,9.419483118E0
8.044985167E0,-5.767506409E-1,-2.916085968E0,9.676477661E0,1.012276734E1
8.055003167E0,-1.213376770E0,-3.005450134E0,1.076636124E1,1.124364478E1
8.065022167E0,-1.617087250E0,-2.720442810E0,1.131317413E1,1.174749715E1
8.075040167E0,-1.636696472E0,-2.172282715E0,1.087398743E1,1.120897810E1
8.085059167E0,-1.565145264E0,-1.604214020E0,9.925110626E0,1.017501859E1
8.095077167E0,-1.357527008E0,-1.157842255E0,8.919352112E0,9.096060706E0
8.105096167E0,-1.198258209E0,-9.854008484E-1,8.106991425E0,8.254098832E0
8.115114167E0,-9.948312378E-1,-9.267228699E-1,7.685767365E0,7.805096056E0
8.125132167E0,-7.729925537E-1,-8.647517395E-1,7.529642029E0,7.618452739E0
8.135151167E0,-6.313870239E-1,-8.319699097E-1,7.548203430E0,7.620118013E0
8.145169167E0,-5.755531311E-1,-1.062640228E0,7.915539551E0,8.007261207E0
8.155188167E0,-5.051994324E-1,-1.372645569E0,8.326285400E0,8.453780864E0
8.165206167E0,-3.775149536E-1,-1.494492188E0,8.505013733E0,8.643568883E0
8.175224167E0,-3.058140564E-1,-1.555864563E0,8.659642181E0,8.803615137E0
8.185243167E0,-3.125500488E-1,-1.633702698E0,8.841064911E0,8.996171452E0
8.195261167E0,-5.056484985E-1,-1.816772003E0,9.061406708E0,9.255562243E0
8.205280167E0,-6.677613831E-1,-2.083666992E0,9.405690765E0,9.656841729E0
8.215298167E0,-6.110293579E-1,-2.054477692E0,9.699230347E0,9.933242410E0
8.225317167E0,-4.311035156E-1,-1.599873047E0,9.839338989E0,9.977877317E0
8.235335167E0,-4.540058899E-1,-1.231339417E0,9.909992065E0,9.996512434E0
8.245353167E0,-9.728269958E-1,-1.351988525E0,9.864935760E0,1.000456011E1
8.255372167E0,-1.275048523E0,-1.467248840E0,9.608369293E0,9.803026490E0
8.265390167E0,-1.474284210E0,-1.429078217E0,9.428742828E0,9.649713457E0
8.275409167E0,-1.637893982E0,-1.307680664E0,9.537865906E0,9.765429404E0
8.285427167E0,-1.694027252E0,-9.714797974E-1,9.716444550E0,9.910741446E0
8.295446167E0,-1.767225037E0,-6.658154297E-1,9.794582062E0,9.974980315E0
8.305464167E0,-1.728156281E0,-5.406756592E-1,9.548643494E0,9.718819212E0
8.315482167E0,-1.574126587E0,-5.969586182E-1,9.025331726E0,9.181004676E0
8.325501167E0,-1.396296387E0,-7.641609192E-1,8.325536957E0,8.476328871E0
8.335519167E0,-1.144370270E0,-8.550219727E-1,7.773335266E0,7.903504732E0
8.345538167E0,-7.936495972E-1,-8.017327881E-1,7.424560547E0,7.509777258E0
8.355556167E0,-5.650749207E-1,-6.285429382E-1,7.505242767E0,7.552684615E0
8.365575167E0,-4.213737488E-1,-2.957849121E-1,7.665559387E0,7.682827947E0
8.375593167E0,-4.011657715E-1,7.214996338E-2,7.520960083E0,7.531997090E0
8.385611167E0,-5.014572144E-1,2.743794250E-1,7.246430969E0,7.268941133E0
8.395630167E0,-7.512876892E-1,3.597019958E-1,7.096592560E0,7.145309278E0
8.405648167E0,-1.021326141E0,3.362008667E-1,7.122039642E0,7.202748557E0
8.415667167E0,-1.235081635E0,2.444416809E-1,7.193141785E0,7.302497320E0
8.425685167E0,-1.297501831E0,5.538482666E-3,7.481891327E0,7.593565665E0
8.435704167E0,-1.360371094E0,-3.854484558E-1,8.319998474E0,8.439286382E0
8.445722167E0,-1.516047363E0,-5.770500183E-1,9.442663879E0,9.580985725E0
8.455740167E0,-1.650318146E0,-4.517605591E-1,1.037851776E1,1.051861533E1
8.465759167E0,-1.728904724E0,1.345701599E-1,1.060050613E1,1.074141289E1
8.475777167E0,-1.745071106E0,8.090675354E-1,1.027463379E1,1.045313173E1
8.485796167E0,-1.981429596E0,1.111887817E0,1.002405487E1,1.027832836E1
8.495814167E0,-2.354902954E0,1.190025330E0,9.797575836E0,1.014663592E1
8.505833167E0,-2.637365570E0,1.118623810E0,9.480684814E0,9.904059821E0
8.515851333E0,-2.631378021E0,9.542655945E-1,9.176517334E0,9.593917005E0
8.525869333E0,-2.471660156E0,6.677613831E-1,8.982670441E0,9.340416342E0
8.535888333E0,-2.353256378E0,2.168989563E-1,9.377100220E0,9.670308644E0
8.545906333E0,-2.071242828E0,2.918930054E-2,9.817634125E0,1.003378486E1
8.555925333E0,-1.576072540E0,1.740879822E-1,9.649833069E0,9.779242789E0
8.565943333E0,-1.163231049E0,1.606159973E-1,9.245224457E0,9.319499945E0
8.575962333E0,-1.088536377E0,-1.257385254E-1,9.030421143E0,9.096660246E0
8.585980333E0,-1.089434509E0,-5.090913391E-1,8.750952301E0,8.833187857E0
8.595998333E0,-1.023571472E0,-6.966513062E-1,8.682245178E0,8.770085686E0
8.606017333E0,-9.526190186E-1,-6.818321228E-1,8.854985962E0,8.932141648E0
8.616035333E0,-9.240284729E-1,-7.376660156E-1,9.118438110E0,9.194775329E0
8.626054333E0,-1.021924896E0,-9.101074219E-1,9.569450226E0,9.666799038E0
8.636072333E0,-1.194665680E0,-9.644444275E-1,9.752818909E0,9.872935521E0
8.646091333E0,-1.254690857E0,-8.327183533E-1,9.865235138E0,9.979505666E0
8.656109333E0,-1.397344208E0,-6.825805664E-1,9.977950745E0,1.009841513E1
8.666127333E0,-1.590442657E0,-5.289999390E-1,1.008018814E1,1.021858805E1
8.676146333E0,-1.702858887E0,-4.834945679E-1,1.014874557E1,1.030196739E1
8.686164333E0,-1.787732391E0,-5.499563599E-1,1.016880386E1,1.033939124E1
8.696183333E0,-1.792971497E0,-6.884184265E-1,1.004890320E1,1.023079284E1
8.706201333E0,-1.747915192E0,-7.940986633E-1,9.896220703E0,1.008072341E1
8.716220333E0,-1.760788422E0,-7.696994019E-1,9.729766846E0,9.917720298E0
8.726238333E0,-1.870659943E0,-6.812333679E-1,9.523046722E0,9.728919077E0
8.736256333E0,-2.045346680E0,-5.010081482E-1,9.435628510E0,9.667757629E0
8.746275333E0,-2.240241394E0,-1.761836243E-1,9.452543335E0,9.715981560E0
8.756293333E0,-2.398013306E0,2.826123047E-1,9.483229523E0,9.785805011E0
8.766312333E0,-2.532134399E0,6.486012268E-1,9.428443451E0,9.784065314E0
8.776330333E0,-2.563269653E0,9.030720520E-1,9.417665863E0,9.801954946E0
8.786349333E0,-2.485281830E0,1.007255402E0,9.394763489E0,9.769993359E0
8.796367333E0,-2.228415985E0,1.095272369E0,9.355095978E0,9.679012352E0
8.806385333E0,-1.976639557E0,1.027014313E0,9.412576447E0,9.672562106E0
8.816404333E0,-1.751058655E0,9.309141541E-1,9.563911743E0,9.767354576E0
8.826422333E0,-1.510957947E0,8.948391724E-1,9.692194977E0,9.849993631E0
8.836441333E0,-1.252146149E0,7.195536804E-1,9.789792023E0,9.895739251E0
8.846459333E0,-1.089135132E0,4.174818420E-1,9.861792297E0,9.930531393E0
8.856478333E0,-8.789721680E-1,1.796264648E-1,9.943073273E0,9.983464521E0
8.866496333E0,-7.635621643E-1,7.244934082E-2,9.836345215E0,9.866203083E0
8.876514333E0,-7.259902954E-1,1.796264648E-2,9.540709991E0,9.568308717E0
8.886533333E0,-9.193881226E-1,-8.038284302E-2,9.209299164E0,9.255426895E0
8.896551333E0,-1.134341125E0,8.202941895E-2,9.021439819E0,9.092845266E0
8.906570333E0,-1.258882141E0,3.965254211E-1,9.015152893E0,9.111256683E0
8.916588333E0,-1.472338257E0,5.087919617E-1,9.243727570E0,9.374067878E0
8.926607333E0,-1.567091217E0,5.170248413E-1,9.591903534E0,9.732815778E0
8.936625333E0,-1.631906433E0,4.929249573E-1,9.914782104E0,1.006026828E1
8.946643333E0,-1.671274567E0,4.614903259E-1,9.966574402E0,1.011626103E1
8.956662333E0,-1.705104218E0,4.625381470E-1,1.001657043E1,1.017118504E1
8.966680333E0,-1.769470367E0,4.278103638E-1,1.009036697E1,1.025327034E1
8.976699333E0,-1.803449707E0,5.643264771E-1,9.912387085E0,1.009090248E1
8.986717333E0,-1.831591187E0,7.809260559E-1,9.782008209E0,9.982597677E0
8.996736333E0,-1.837429047E0,9.861492920E-1,9.778565369E0,9.998448710E0
9.006754333E0,-2.032024384E0,9.737251282E-1,1.058374100E1,1.082094438E1
9.016772333E0,-1.762584686E0,1.377136230E0,1.037133270E1,1.060979505E1
9.026791333E0,-1.739981689E0,1.469344482E0,1.005923172E1,1.031380882E1
9.036809333E0,-1.478924561E0,1.290167084E0,9.531728668E0,9.731680244E0
9.046828333E0,-1.241967316E0,1.149459686E0,9.238787842E0,9.392493874E0
9.056846333E0,-1.066232758E0,9.734257507E-1,9.211544495E0,9.323999247E0
9.066865333E0,-9.665400696E-1,7.997868347E-1,9.387578430E0,9.471034129E0
9.076883333E0,-8.755293274E-1,7.017407227E-1,9.738448792E0,9.802875931E0
9.086901333E0,-8.684939575E-1,6.641688538E-1,9.853110352E0,9.913585911E0
9.096920333E0,-9.098080444E-1,7.123686218E-1,9.659113770E0,9.727985328E0
9.106938333E0,-9.931846619E-1,8.361611938E-1,9.492061157E0,9.580438734E0
9.116957333E0,-1.137933655E0,8.857081604E-1,9.383985901E0,9.494133101E0
9.126975333E0,-1.304237823E0,9.446855164E-1,9.384884033E0,9.522054156E0
9.136994333E0,-1.402882690E0,9.999206543E-1,9.445058899E0,9.600888436E0
9.147012333E0,-1.479223938E0,1.009351044E0,9.499844971E0,9.667158189E0
9.157030333E0,-1.551224213E0,1.018931122E0,9.581425323E0,9.759519887E0
9.167049333E0,-1.577719116E0,1.029858398E0,9.714199219E0,9.895224727E0
9.177067333E0,-1.622625732E0,1.154698792E0,9.754764862E0,9.955987198E0
9.187086333E0,-1.648821259E0,1.284029846E0,9.763596497E0,9.984746403E0
9.197104333E0,-1.671274567E0,1.331181793E0,9.708061981E0,9.940405981E0
9.207123333E0,-1.670526123E0,1.298100586E0,9.745334473E0,9.972325037E0
9.217141333E0,-1.595831451E0,1.209185486E0,9.704469452E0,9.908861433E0
9.227159333E0,-1.485361176E0,1.152453461E0,9.574689331E0,9.757516210E0
9.237178333E0,-1.407523041E0,1.181792450E0,9.495653687E0,9.671876418E0
9.247196333E0,-1.263522491E0,1.328936462E0,9.470955048E0,9.646841489E0
9.257215333E0,-1.112636261E0,1.413360901E0,9.553134155E0,9.721004098E0
9.267233333E0,-1.022373962E0,1.368753662E0,9.601333923E0,9.752145826E0
9.277252333E0,-9.508227539E-1,1.253343658E0,9.596543884E0,9.724638233E0
9.287270333E0,-8.885522461E-1,1.181343384E0,9.533375244E0,9.647297074E0
9.297288333E0,-9.174421692E-1,1.089135132E0,9.527387695E0,9.633225408E0
9.307307333E0,-9.342073059E-1,1.037791901E0,9.563462677E0,9.664862839E0
9.317325333E0,-1.009051666E0,1.041534119E0,9.580976257E0,9.690102405E0
9.327344333E0,-1.163530426E0,1.089584198E0,9.602082367E0,9.733497961E0
9.337362333E0,-1.309027863E0,1.289418640E0,9.642648010E0,9.816150723E0
9.347381333E0,-1.457519073E0,1.523531799E0,9.685159607E0,9.912004217E0
9.357399333E0,-1.589843903E0,1.564247131E0,9.684261475E0,9.937776061E0
9.367417333E0,-1.597478027E0,1.504521332E0,9.671388245E0,9.917220935E0
9.377436333E0,-1.512754211E0,1.448537750E0,9.662706299E0,9.887091581E0
9.387454333E0,-1.407373352E0,1.411864014E0,9.712852020E0,9.915319163E0
9.397473333E0,-1.286574554E0,1.285377045E0,9.763596497E0,9.931529831E0
9.407491333E0,-1.203347626E0,1.163680115E0,9.807455292E0,9.949290237E0
9.417510333E0,-1.216071167E0,1.207688599E0,9.611213379E0,9.762825587E0
9.427528333E0,-1.346150665E0,1.456321564E0,8.910370789E0,9.128400829E0
9.437546333E0,-1.587149506E0,1.628313904E0,9.117240601E0,9.396516689E0
9.447565333E0,-1.775757294E0,1.741328888E0,9.360035706E0,9.684823626E0
9.457583333E0,-1.919608154E0,1.740879822E0,9.322463837E0,9.675943882E0
9.467602333E0,-1.876497803E0,1.631457367E0,9.224268036E0,9.553534317E0
9.477620333E0,-1.681902466E0,1.508263550E0,9.401349792E0,9.668972684E0
9.487639333E0,-1.477277985E0,1.465751953E0,9.792636108E0,1.001131864E1
9.497657333E0,-1.442250824E0,1.580563202E0,1.022643402E1,1.044788114E1
9.507675333E0,-1.543141022E0,1.866019592E0,1.048225204E1,1.075829546E1
9.517693917E0,-1.550625458E0,1.954485626E0,1.043060944E1,1.072483411E1