"Time (s)","Acceleration x (m/s^2)","Acceleration y (m/s^2)","Acceleration z (m/s^2)","Absolute acceleration (m/s^2)"
2.198499999E-3,1.109792175E0,1.126108246E0,9.376950531E0,9.509309108E0
1.221650000E-2,1.188977509E0,1.060843964E0,8.904233551E0,9.045685854E0
2.223450000E-2,1.148262177E0,1.011895752E0,8.647218018E0,8.781618215E0
3.225250000E-2,1.099613342E0,1.034947815E0,8.729247437E0,8.858895376E0
4.227050000E-2,1.050814819E0,1.143322449E0,8.905880127E0,9.040248826E0
5.228850000E-2,1.082249451E0,1.327140198E0,9.002878418E0,9.164299471E0
6.230650000E-2,1.016236725E0,1.466650085E0,9.199419708E0,9.370865623E0
7.232450000E-2,8.310717773E-1,1.473086700E0,9.685159607E0,9.831733384E0
8.234250000E-2,5.420228577E-1,1.377585297E0,1.010653336E1,1.021437940E1
9.236050000E-2,2.586621094E-1,1.283431091E0,1.030517029E1,1.038800443E1
1.023785000E-1,1.734892273E-1,1.246008911E0,1.046563660E1,1.054097652E1
1.123965000E-1,2.185455322E-1,1.254990234E0,1.050096313E1,1.057794826E1
1.224145000E-1,2.911445618E-1,1.297352142E0,1.048764084E1,1.057158919E1
1.324325000E-1,2.832110596E-1,1.331181793E0,1.035172348E1,1.044080612E1
1.424495000E-1,2.761756897E-1,1.332828369E0,1.016431320E1,1.025504595E1
1.524675000E-1,2.619552612E-1,1.303938446E0,9.930649109E0,1.001931473E1
1.624855000E-1,2.571652222E-1,1.316661987E0,9.692344666E0,9.784747204E0
1.725035000E-1,2.782713318E-1,1.338815918E0,9.533674622E0,9.631241602E0
1.825215000E-1,2.499801636E-1,1.325643311E0,9.416168976E0,9.512310889E0
1.925395000E-1,1.986369324E-1,1.246158600E0,9.265582123E0,9.351116509E0
2.025575000E-1,1.372645569E-1,1.083297272E0,9.271869049E0,9.335948275E0
2.125755000E-1,8.083190918E-2,9.364526367E-1,9.535620575E0,9.581833702E0
2.225935000E-1,1.796264648E-3,9.357041931E-1,9.929900665E0,9.973889552E0
2.326115000E-1,-7.664062500E-2,9.039701843E-1,1.025577301E1,1.029582031E1
2.426295000E-1,-1.576222229E-1,8.222401428E-1,1.036100418E1,1.039477423E1
2.526475000E-1,-1.514849854E-1,8.735833740E-1,1.026400589E1,1.030222852E1
2.626655000E-1,-2.005828857E-2,1.015637970E0,9.998907166E0,1.005037648E1
2.726835000E-1,1.190025330E-1,1.075962524E0,9.694889374E0,9.755139001E0
2.827015000E-1,1.543290710E-1,9.681866455E-1,9.631421356E0,9.681192085E0
2.927195000E-1,9.984237671E-2,8.750802612E-1,9.746681671E0,9.786395535E0
3.027375000E-1,3.068618774E-2,8.511300659E-1,9.822873230E0,9.859726290E0
3.127555000E-1,2.874023438E-2,8.412506104E-1,9.835447083E0,9.871400504E0
3.227735000E-1,2.215393066E-2,8.231382751E-1,9.721084900E0,9.755897655E0
3.327915000E-1,2.903961182E-2,8.201445007E-1,9.545050964E0,9.580265039E0
3.428095000E-1,5.837860107E-3,8.150550842E-1,9.377549286E0,9.412904944E0
3.528275000E-1,-2.963836670E-2,8.011340332E-1,9.249565430E0,9.284242285E0
3.628455000E-1,-9.954299927E-2,7.920030212E-1,9.305099945E0,9.339275271E0
3.728635000E-1,-2.185455322E-1,8.213420105E-1,9.424551544E0,9.462797507E0
3.828815000E-1,-3.420387268E-1,7.815248108E-1,9.498797150E0,9.537028825E0
3.928995000E-1,-4.525090027E-1,6.973997498E-1,9.694140930E0,9.729722462E0
4.029175000E-1,-5.285508728E-1,8.168513489E-1,9.831255798E0,9.879281488E0
4.129355000E-1,-4.692741394E-1,1.011746063E0,9.723030853E0,9.786785851E0
4.229535000E-1,-3.070115662E-1,1.079555054E0,9.550290070E0,9.616014540E0
4.329715000E-1,-2.080673218E-1,1.099613342E0,9.361682281E0,9.428336897E0
4.429895000E-1,-4.266128540E-2,1.190923462E0,9.199270020E0,9.276135379E0
4.530075000E-1,1.939965820E-1,1.260678406E0,9.225764923E0,9.313521522E0
4.630255000E-1,4.189787292E-1,1.293011169E0,9.472601624E0,9.569618727E0
4.730435000E-1,5.456153870E-1,1.279838562E0,9.730664978E0,9.829624805E0
4.830615000E-1,5.218148804E-1,1.243314514E0,9.994865570E0,1.008540825E1
4.930795000E-1,4.637356567E-1,1.237476654E0,1.028122009E1,1.036580367E1
5.030975000E-1,3.884422302E-1,1.293160858E0,1.034229309E1,1.043006130E1
5.131155000E-1,3.659889221E-1,1.253493347E0,1.008048752E1,1.016471456E1
5.231335000E-1,3.749702454E-1,1.082399139E0,9.657317505E0,9.725017839E0
5.331515000E-1,4.809498596E-1,9.216334534E-1,9.239087219E0,9.297389614E0
5.431695000E-1,7.092251587E-1,7.550299072E-1,8.927135925E0,8.987036570E0
5.531875000E-1,1.216819611E0,6.756948853E-1,8.979676666E0,9.086903024E0
5.632055000E-1,1.869462433E0,7.077282715E-1,9.188791809E0,9.403704802E0
5.732235000E-1,2.153721313E0,7.758366394E-1,9.324709167E0,9.601595651E0
5.832415000E-1,1.879042511E0,8.746311951E-1,9.251810760E0,9.481127720E0
5.932595000E-1,1.103954315E0,7.144642639E-1,9.056167603E0,9.151139053E0
6.032775000E-1,3.058140564E-1,4.727169800E-1,8.956624603E0,8.974302639E0
6.132955000E-1,-3.592529297E-1,2.838098145E-1,8.850195923E0,8.862030160E0
6.233135000E-1,-7.643106079E-1,1.535806274E-1,8.894653473E0,8.928752327E0
6.333315000E-1,-7.932005310E-1,1.353186035E-1,8.990005188E0,9.025944354E0
6.433495000E-1,-7.432044983E-1,1.514849854E-1,9.140142975E0,9.171560076E0
6.533675000E-1,-6.412664795E-1,2.643502808E-1,9.530830536E0,9.556036546E0
6.633855000E-1,-5.715115356E-1,5.180726624E-1,9.794582062E0,9.824910304E0
6.734035000E-1,-4.653822327E-1,8.924441528E-1,9.858499146E0,9.909744830E0
6.834215000E-1,-3.400927734E-1,1.271455994E0,9.838889923E0,9.926531033E0
6.934395000E-1,-2.148033142E-1,1.544188843E0,9.620943146E0,9.746445848E0
7.034575000E-1,-6.586303711E-3,1.748364258E0,9.288783875E0,9.451895409E0
7.134755000E-1,1.981878662E-1,1.867815857E0,9.113348694E0,9.304898652E0
7.234935000E-1,3.091072083E-1,1.784439240E0,9.234147491E0,9.410061135E0
7.335115000E-1,3.623963928E-1,1.617087250E0,9.375303955E0,9.520642130E0
7.435295000E-1,4.659809875E-1,1.432371368E0,9.389524384E0,9.509573816E0
7.535475000E-1,4.748126221E-1,1.211281128E0,9.279652863E0,9.370411210E0
7.635655000E-1,4.468208313E-1,1.049617310E0,9.053173828E0,9.124763105E0
7.735835000E-1,4.361929321E-1,1.009800110E0,8.713679810E0,8.782834187E0
7.836015000E-1,5.801934814E-1,1.057550812E0,8.389903107E0,8.476173213E0
7.936195000E-1,9.669891357E-1,1.021924896E0,8.215066681E0,8.334669703E0
8.036372500E-1,1.353635101E0,9.723779297E-1,8.292755127E0,8.458583476E0
8.136552500E-1,1.304836578E0,8.231382751E-1,8.635991364E0,8.772713488E0
8.236732500E-1,8.399034119E-1,4.831951904E-1,9.165590057E0,9.216667317E0
8.336912500E-1,2.794688416E-1,1.231938171E-1,9.813592529E0,9.818343948E0
8.437092500E-1,-2.171983337E-1,6.391708374E-2,1.033391052E1,1.033639043E1
8.537272500E-1,-7.036866760E-1,2.490820312E-1,1.060664337E1,1.063287827E1
8.637452500E-1,-9.897418213E-1,5.643264771E-1,1.060739182E1,1.066840262E1
8.737632500E-1,-8.860075378E-1,8.821156311E-1,1.033211426E1,1.040748396E1
8.837812500E-1,-6.436614990E-1,1.082848206E0,9.891131287E0,9.971024947E0
8.937992500E-1,-3.534150696E-1,1.232237549E0,9.690398712E0,9.774821676E0
9.038162500E-1,-1.237925720E-1,1.364562378E0,9.768087158E0,9.863715416E0
9.138342500E-1,-6.331832886E-2,1.435664520E0,9.919422455E0,1.002297778E1
9.238522500E-1,-1.553768921E-1,1.490600281E0,1.011267059E1,1.022311781E1
9.338702500E-1,-3.116519165E-1,1.502276001E0,1.026610153E1,1.038011564E1
9.438882500E-1,-3.258723450E-1,1.519340515E0,1.038046371E1,1.049612382E1
9.539062500E-1,-2.246827698E-1,1.583706665E0,1.048060547E1,1.060196681E1
9.639242500E-1,2.215393066E-2,1.621128845E0,1.057730438E1,1.070083723E1
9.739422500E-1,1.966909790E-1,1.659149780E0,1.058433975E1,1.071539609E1
9.839602500E-1,2.941383362E-1,1.672621765E0,1.055634796E1,1.069208414E1
9.939782500E-1,3.987707520E-1,1.643282776E0,1.054826477E1,1.068294370E1
1.003996250E0,1.706451416E-1,1.443448334E0,1.038690033E1,1.048810571E1
1.014014250E0,-7.424560547E-2,1.148561554E0,1.016102005E1,1.022599797E1
1.024032250E0,-1.073268127E-1,9.611512756E-1,9.859397278E0,9.906717191E0
1.034050250E0,6.271957397E-2,8.973838806E-1,9.552685089E0,9.594947837E0
1.044068250E0,2.526745605E-1,9.288185120E-1,9.315129089E0,9.364730547E0
1.054086250E0,3.606001282E-1,1.013392639E0,9.195976868E0,9.258670944E0
1.064104250E0,4.321513367E-1,1.068178711E0,9.094038849E0,9.166749867E0
1.074122250E0,4.351451111E-1,1.116079102E0,8.965605927E0,9.045279070E0
1.084140250E0,4.165837097E-1,1.135239258E0,9.099128265E0,9.179130969E0
1.094158250E0,2.448907471E-1,1.080602875E0,9.418563995E0,9.483513156E0
1.104176250E0,2.122586060E-1,1.188977509E0,9.616901550E0,9.692446371E0
1.114194250E0,4.113446045E-1,1.310674438E0,9.637109528E0,9.734523713E0
1.124212250E0,5.981561279E-1,1.322649536E0,9.603878632E0,9.712964394E0
1.134230250E0,6.334826660E-1,1.366807709E0,9.602681122E0,9.720131086E0
1.144248250E0,6.384223938E-1,1.416953430E0,9.732161865E0,9.855471310E0
1.154266250E0,6.125262451E-1,1.448238373E0,1.006402176E1,1.018612374E1
1.164284250E0,4.640350342E-1,1.431323547E0,1.043330383E1,1.054124492E1
1.174302250E0,2.362088013E-1,1.376986542E0,1.073372910E1,1.082427027E1
1.184320250E0,1.716929626E-1,1.219364319E0,1.089853638E1,1.096788143E1
1.194338250E0,1.329235840E-1,9.714797974E-1,1.087593338E1,1.092004435E1
1.204356250E0,1.625619507E-1,8.532257080E-1,1.085362976E1,1.088832859E1
1.214374250E0,1.149609375E-1,7.451504517E-1,1.079749649E1,1.082378842E1
1.224392250E0,1.206491089E-1,6.378236389E-1,1.064930466E1,1.066907048E1
1.234410250E0,1.556762695E-1,5.754034424E-1,1.055440201E1,1.057122159E1
1.244428250E0,6.212081909E-2,6.896159363E-1,1.046279251E1,1.048567863E1
1.254446250E0,4.340972900E-2,9.675878906E-1,1.028271698E1,1.032823214E1
1.264464250E0,1.423539734E-1,1.177152100E0,1.004231689E1,1.011207597E1
1.274482250E0,3.757186890E-1,1.226848755E0,1.003168900E1,1.011341221E1
1.284500250E0,4.986131287E-1,1.262474670E0,9.965227203E0,1.005724667E1
1.294518250E0,6.328839111E-1,1.540147247E0,9.699829102E0,9.841711243E0
1.304536250E0,8.696914673E-1,1.805695038E0,9.235045624E0,9.450024629E0
1.314554250E0,9.538165283E-1,1.993404694E0,8.984766083E0,9.252537479E0
1.324572250E0,1.157393188E0,2.242187347E0,8.938362579E0,9.287695553E0
1.334590250E0,1.314716034E0,2.357447662E0,8.732690277E0,9.140345574E0
1.344608250E0,1.121916962E0,2.052382050E0,9.036857758E0,9.334654138E0
1.354626250E0,7.384144592E-1,1.492695923E0,9.558672638E0,9.702660441E0
1.364644250E0,5.131329346E-1,9.226812744E-1,1.019470001E1,1.024922214E1
1.374662250E0,5.680686951E-1,4.260140991E-1,1.064376617E1,1.066742464E1
1.384680250E0,7.842192078E-1,2.134561157E-1,1.065619034E1,1.068713974E1
1.394698250E0,1.008452911E0,2.171983337E-1,1.044572800E1,1.049654161E1
1.404716250E0,1.162632294E0,2.420466614E-1,1.028870453E1,1.035701411E1
1.414734250E0,1.340761871E0,5.108876038E-1,1.025622208E1,1.035609675E1
1.424752250E0,1.328337708E0,9.648934937E-1,1.036399796E1,1.049323373E1
1.434770250E0,8.678952026E-1,1.321302338E0,1.054871384E1,1.066651047E1
1.444788250E0,4.526586914E-1,1.632804565E0,1.072609497E1,1.085910051E1
1.454806250E0,3.629951477E-1,1.822609863E0,1.065439407E1,1.081525706E1
1.464824250E0,2.930905151E-1,1.935325470E0,1.038121216E1,1.056413520E1
1.474842250E0,3.049159241E-1,1.761836243E0,1.019005966E1,1.034574099E1
1.484860250E0,4.562512207E-1,1.444346466E0,9.942773895E0,1.005748749E1
1.494878250E0,6.646179199E-1,1.237776031E0,9.619895325E0,9.721943866E0
1.504896250E0,7.574249268E-1,1.097218323E0,9.419162750E0,9.513054582E0
1.514914250E0,8.119116211E-1,1.053958282E0,9.350605316E0,9.444778892E0
1.524932250E0,8.427474976E-1,1.093027039E0,9.273216248E0,9.375365114E0
1.534950250E0,7.943980408E-1,1.229543152E0,9.242230682E0,9.357439425E0
1.544968250E0,4.912783813E-1,1.283281403E0,9.368118896E0,9.468358742E0
1.554986250E0,2.037263489E-1,1.302890625E0,9.602232056E0,9.692362398E0
1.565004250E0,-2.694396973E-3,1.329385529E0,9.764794006E0,9.854870630E0
1.575022250E0,-1.901046753E-1,1.369053040E0,9.775272217E0,9.872506922E0
1.585040250E0,-3.079096985E-1,1.366957397E0,9.655072174E0,9.756218509E0
1.595058250E0,-3.222798157E-1,1.316063232E0,9.403295746E0,9.500413549E0
1.605076250E0,-2.245330811E-1,1.261127472E0,9.183702393E0,9.272607359E0
1.615094250E0,-1.930984497E-2,1.141825562E0,9.036857758E0,9.108728595E0
1.625112250E0,1.895059204E-1,1.038540344E0,9.148824921E0,9.209531800E0
1.635130250E0,3.487747192E-1,9.940827942E-1,9.327104187E0,9.386411291E0
1.645148250E0,3.258723450E-1,9.629475403E-1,9.458081818E0,9.512558668E0
1.655166250E0,2.004331970E-1,8.690927124E-1,9.597591705E0,9.638945075E0
1.665184250E0,3.802093506E-2,9.313632202E-1,9.591454468E0,9.636642665E0
1.675202250E0,-2.020797729E-1,1.015188904E0,9.356143799E0,9.413228539E0
1.685220250E0,-3.737727356E-1,1.107097778E0,9.145831146E0,9.220173475E0
1.695238250E0,-4.333488464E-1,1.226848755E0,8.885672150E0,8.980429758E0
1.705256250E0,-4.616400146E-1,1.403032379E0,8.826395416E0,8.949126628E0
1.715274250E0,-5.307962036E-1,1.545236664E0,8.833879852E0,8.983703813E0
1.725292250E0,-5.771997070E-1,1.596579895E0,8.819509735E0,8.981424098E0
1.735310250E0,-6.565347290E-1,1.558558960E0,8.846004639E0,9.006216850E0
1.745328250E0,-6.658154297E-1,1.595681763E0,8.969497833E0,9.134626531E0
1.755346250E0,-4.842430115E-1,1.655257874E0,9.250762939E0,9.410153287E0
1.765364250E0,-3.339555359E-1,1.683698730E0,9.661359100E0,9.812656489E0
1.775382250E0,-3.254232788E-1,1.695524139E0,1.001312759E1,1.016087726E1
1.785400250E0,-3.903881836E-1,1.638642426E0,1.011641281E1,1.025569891E1
1.795418250E0,-4.135899353E-1,1.573078766E0,1.014350647E1,1.027308897E1
1.805436875E0,-3.703298950E-1,1.579814758E0,1.023631348E1,1.036412430E1
1.815454875E0,-3.254232788E-1,1.532363434E0,1.039513321E1,1.051250838E1
1.825472875E0,-3.158432007E-1,1.632205811E0,1.058628571E1,1.071602994E1
1.835490875E0,-2.712359619E-1,2.082768860E0,1.079105988E1,1.099356486E1
1.845508875E0,-2.457888794E-1,2.395917664E0,1.139595200E1,1.164768456E1
1.855526875E0,-4.475692749E-1,2.319726105E0,1.130359406E1,1.154784335E1
1.865544875E0,-5.894741821E-1,1.792821808E0,1.097742233E1,1.113846897E1
1.875562875E0,-7.837701416E-1,1.261875916E0,1.070543793E1,1.080800757E1
1.885580875E0,-1.022823029E0,8.551716614E-1,1.048180298E1,1.056625190E1
1.895598875E0,-1.222657471E0,5.858816528E-1,1.019829254E1,1.028801824E1
1.905616875E0,-1.401385803E0,3.517684937E-1,9.863289185E0,9.968555401E0
1.915634875E0,-1.540446625E0,1.904040527E-1,9.473050690E0,9.599370754E0
1.925652875E0,-1.521286469E0,2.010319519E-1,9.193581848E0,9.320765718E0
1.935670875E0,-1.416354675E0,8.906478882E-2,9.025780792E0,9.136668540E0
1.945688875E0,-1.296753387E0,-9.669891357E-2,8.944050751E0,9.038084081E0
1.955706875E0,-1.183439026E0,-3.387455750E-1,8.987759857E0,9.071664883E0
1.965724875E0,-1.010398865E0,-6.574328613E-1,9.160800018E0,9.239771686E0
1.975742875E0,-9.117539978E-1,-1.091380463E0,9.471404114E0,9.577572895E0
1.985760875E0,-9.089099121E-1,-1.523531799E0,9.721683655E0,9.882226442E0
1.995778875E0,-8.827143860E-1,-1.631607056E0,9.541308746E0,9.719974221E0
2.005796875E0,-9.207353210E-1,-1.379082184E0,9.193881226E0,9.342219928E0
2.015814875E0,-1.010548553E0,-9.006770325E-1,8.961564331E0,9.063225847E0
2.025832875E0,-1.241817627E0,-3.665876770E-1,9.237740021E0,9.328040428E0
2.035850875E0,-1.418899384E0,3.113525391E-1,9.974358215E0,1.007958519E1
2.045868875E0,-1.497336273E0,8.797206116E-1,1.030397278E1,1.044929564E1
2.055885875E0,-1.395847321E0,9.886940002E-1,9.966724091E0,1.011244257E1
2.065903875E0,-1.200503540E0,6.020480347E-1,9.706565094E0,9.799034468E0
2.075921875E0,-1.302890625E0,3.951782227E-2,9.587412872E0,9.675617356E0
2.085939875E0,-1.469494171E0,-5.279521179E-1,9.611662445E0,9.737669203E0
2.095957875E0,-1.754950562E0,-9.228309631E-1,9.763147430E0,9.962455330E0
2.105975875E0,-2.027533722E0,-1.109343109E0,9.582024078E0,9.856810872E0
2.115993875E0,-2.176473999E0,-1.062789917E0,9.349707184E0,9.658342813E0
2.126011875E0,-2.412982178E0,-1.003962250E0,9.450148315E0,9.804882782E0
2.136029875E0,-2.739303589E0,-1.049168243E0,9.424701233E0,9.870639872E0
2.146047875E0,-2.515518951E0,-1.059347076E0,9.614506531E0,9.994437836E0
2.156065875E0,-2.070045319E0,-1.053658905E0,9.479636993E0,9.760061590E0
2.166083875E0,-1.760339355E0,-1.075812836E0,9.491911469E0,9.713524141E0
2.176101875E0,-1.346899109E0,-1.137334900E0,9.509275360E0,9.671297005E0
2.186119875E0,-9.002279663E-1,-1.229692841E0,9.575886841E0,9.696399521E0
2.196137875E0,-6.450086975E-1,-1.348395996E0,9.721384277E0,9.835625056E0
2.206155875E0,-4.517605591E-1,-1.496587830E0,9.901310120E0,1.002396153E1
2.216173875E0,-5.873785400E-1,-1.568588104E0,9.931247864E0,1.007150268E1
2.226191875E0,-1.181942139E0,-1.358724518E0,1.011162277E1,1.027073681E1
2.236209875E0,-1.362317047E0,-1.041833496E0,1.038839722E1,1.052901332E1
2.246227875E0,-1.118623810E0,-8.202941895E-1,1.052626053E1,1.061726719E1
2.256245875E0,-8.638536072E-1,-7.141648865E-1,1.046009811E1,1.051997752E1
2.266263875E0,-7.447013855E-1,-8.759783936E-1,1.060739182E1,1.066952105E1
2.276281875E0,-7.735913086E-1,-1.265618134E0,1.064032333E1,1.074321709E1
2.286299875E0,-7.988887024E-1,-1.541793823E0,1.010698242E1,1.025506924E1
2.296317875E0,-7.283853149E-1,-1.580263824E0,9.649533691E0,9.805165954E0
2.306335875E0,-5.168751526E-1,-1.505718842E0,9.368418274E0,9.502715933E0
2.316353875E0,-3.038681030E-1,-1.498234406E0,9.166188812E0,9.292796108E0
2.326371875E0,-1.375639343E-1,-1.560055847E0,9.033115540E0,9.167871860E0
2.336389875E0,-1.080752563E-1,-1.600322113E0,8.942703552E0,9.085409069E0
2.346407875E0,-5.867797852E-2,-1.584754486E0,8.972192230E0,9.111263540E0
2.356425875E0,2.365081787E-2,-1.576970673E0,9.125623169E0,9.260906764E0
2.366443875E0,2.254312134E-1,-1.591789856E0,9.347761230E0,9.485001539E0
2.376461875E0,3.864962769E-1,-1.702409821E0,9.611662445E0,9.768911584E0
2.386479875E0,3.315605164E-1,-1.918260956E0,9.846823425E0,1.003740948E1
2.396497875E0,1.718426514E-1,-2.131118317E0,1.001567230E1,1.024133228E1
2.406515875E0,2.243833923E-1,-2.325863342E0,1.024858795E1,1.051159090E1
2.416533875E0,5.233117676E-1,-2.525099030E0,1.054646851E1,1.085716253E1
2.426551875E0,1.001866608E0,-2.537822571E0,1.075423645E1,1.109494848E1
2.436569875E0,1.587299194E0,-2.241139526E0,1.069361252E1,1.104063285E1
2.446587875E0,1.958826599E0,-1.983525238E0,1.038076309E1,1.074856346E1
2.456605875E0,2.009571075E0,-1.954485626E0,9.806856537E0,1.019964828E1
2.466623875E0,1.868713989E0,-2.030677185E0,9.170679474E0,9.576904710E0
2.476641875E0,1.736239471E0,-2.099084930E0,8.624165955E0,9.044165161E0
2.486659875E0,1.790576477E0,-2.118993530E0,8.231382751E0,8.686308750E0
2.496677875E0,1.998494110E0,-2.077380066E0,8.059689789E0,8.559677923E0
2.506695875E0,2.193987579E0,-2.055675201E0,7.971672821E0,8.519797509E0
2.516713875E0,2.311792603E0,-2.093995514E0,7.971373444E0,8.559906356E0
2.526731875E0,2.313738556E0,-2.183659058E0,8.118367767E0,8.719498162E0
2.536749875E0,2.211950226E0,-2.279908905E0,8.424630890E0,9.003616720E0
2.546767875E0,1.952389984E0,-2.348616028E0,8.870852966E0,9.381889801E0
2.556785875E0,1.667083282E0,-2.344574432E0,9.338630219E0,9.771704575E0
2.566803875E0,1.439855804E0,-2.290087738E0,9.764195251E0,1.013198872E1
2.576821875E0,1.249601440E0,-2.179168396E0,1.009276199E1,1.040067898E1
2.586839875E0,1.114731903E0,-2.058369598E0,1.029903305E1,1.056170414E1
2.596857875E0,1.016386414E0,-1.953288116E0,1.040052200E1,1.063105045E1
2.606875875E0,9.401948547E-1,-1.945653992E0,1.038330780E1,1.060578223E1
2.616893875E0,8.864566040E-1,-2.025138702E0,1.022748184E1,1.046366938E1
2.626911875E0,8.955876160E-1,-2.145937500E0,9.982142029E0,1.024940410E1
2.636929875E0,1.023272095E0,-2.237247620E0,9.727820892E0,1.003408501E1
2.646947875E0,1.250798950E0,-2.255509644E0,9.504784698E0,9.848489931E0
2.656965875E0,1.497336273E0,-2.240690460E0,9.323960724E0,9.705614521E0
2.666983875E0,1.748064880E0,-2.195634155E0,9.130263519E0,9.551871654E0
2.677001875E0,1.985920258E0,-2.143542480E0,8.916807404E0,9.383395329E0
2.687019875E0,2.105970612E0,-2.108665009E0,8.773704987E0,9.266039042E0
2.697037875E0,2.104473724E0,-2.056273956E0,8.746761017E0,9.228374750E0
2.707055875E0,2.006876678E0,-1.988614655E0,8.854536896E0,9.294351289E0
2.717073875E0,1.883982239E0,-1.907333679E0,8.997489624E0,9.388404038E0
2.727091875E0,1.720971222E0,-1.873354340E0,9.162147217E0,9.508740193E0
2.737109875E0,1.535057831E0,-1.912722473E0,9.369615784E0,9.685277990E0
2.747127875E0,1.372346191E0,-1.945803680E0,9.617350616E0,9.907720167E0
2.757145875E0,1.241518250E0,-1.893113251E0,9.789792023E0,1.004814775E1
2.767163875E0,1.184935913E0,-1.799707489E0,9.904453583E0,1.013613442E1
2.777181875E0,1.242266693E0,-1.696871338E0,9.924811249E0,1.014517014E1
2.787199875E0,1.336420898E0,-1.655706940E0,9.831255798E0,1.005887553E1
2.797217875E0,1.390308838E0,-1.706451416E0,9.712402954E0,9.958700028E0
2.807235250E0,1.404379578E0,-1.853595428E0,9.597292328E0,9.875024964E0
2.817253250E0,1.427880707E0,-2.020198975E0,9.503736877E0,9.820441021E0
2.827271250E0,1.493444366E0,-2.164947968E0,9.441616058E0,9.801096345E0
2.837289250E0,1.623673553E0,-2.277064819E0,9.358688507E0,9.767619494E0
2.847307250E0,1.781595154E0,-2.336042175E0,9.274563446E0,9.728756419E0
2.857325250E0,1.891766052E0,-2.320324860E0,9.180708618E0,9.656505423E0
2.867343250E0,1.887724457E0,-2.276765442E0,9.118737488E0,9.586372509E0
2.877361250E0,1.810634766E0,-2.209255829E0,9.140741730E0,9.576657504E0
2.887379250E0,1.729802856E0,-2.133663025E0,9.251212006E0,9.650370946E0
2.897397250E0,1.667532349E0,-2.088906097E0,9.386081543E0,9.759237652E0
2.907415250E0,1.631307678E0,-2.069745941E0,9.546398163E0,9.903470648E0
2.917433250E0,1.625170441E0,-2.091001740E0,9.660460968E0,1.001688441E1
2.927451250E0,1.596579895E0,-2.110760651E0,9.705966339E0,1.006032606E1
2.937469250E0,1.537153473E0,-2.114802246E0,9.676327972E0,1.002330047E1
2.947487250E0,1.530567169E0,-2.099683685E0,9.630523224E0,9.974882706E0
2.957505250E0,1.584904175E0,-2.068847809E0,9.558373260E0,9.907297910E0
2.967523250E0,1.659598846E0,-2.043251038E0,9.486372986E0,9.844816685E0
2.977541250E0,1.691781921E0,-2.022144928E0,9.421108704E0,9.783071368E0
2.987559250E0,1.683698730E0,-2.017953644E0,9.321565704E0,9.684965953E0
2.997577250E0,1.641486511E0,-2.026635590E0,9.211843872E0,9.573912330E0
3.007595250E0,1.595831451E0,-2.034718781E0,9.151519318E0,9.509840396E0
3.017613250E0,1.558858337E0,-2.061213684E0,9.196725311E0,9.552926129E0
3.027631250E0,1.548978882E0,-2.115550690E0,9.316625977E0,9.678554122E0
3.037649250E0,1.572929077E0,-2.171085205E0,9.430239716E0,9.803934819E0
3.047667250E0,1.582808533E0,-2.211351471E0,9.501641235E0,9.883144456E0
3.057685250E0,1.588047638E0,-2.213596802E0,9.503437500E0,9.886214160E0
3.067703250E0,1.582209778E0,-2.176024933E0,9.466614075E0,9.841506710E0
3.077721250E0,1.506616974E0,-2.108365631E0,9.414971466E0,9.765080033E0
3.087739250E0,1.392703857E0,-2.042053528E0,9.399852905E0,9.719405398E0
3.097757250E0,1.319506073E0,-1.998643799E0,9.467362518E0,9.765583770E0
3.107775250E0,1.384620667E0,-1.963317261E0,9.616901550E0,9.912445939E0
3.117793250E0,1.548529816E0,-1.925296326E0,9.768087158E0,1.007572515E1
3.127811250E0,1.689536591E0,-1.914219360E0,9.861193542E0,1.018635890E1
3.137829250E0,1.739083557E0,-1.934127960E0,9.855655060E0,1.019309567E1
3.147847250E0,1.761985931E0,-1.974094849E0,9.771529999E0,1.012346005E1
3.157865250E0,1.767973480E0,-2.000440063E0,9.615554352E0,9.979297378E0
3.167883250E0,1.775757294E0,-2.012415161E0,9.410480804E0,9.785718048E0
3.177901250E0,1.773811340E0,-1.991608429E0,9.201515350E0,9.580229410E0
3.187919250E0,1.757794647E0,-1.989961853E0,9.028325500E0,9.410656276E0
3.197937250E0,1.737586670E0,-2.027833099E0,8.944350128E0,9.334490545E0
3.207955250E0,1.777403870E0,-2.096540222E0,8.931027832E0,9.344404933E0
3.217973250E0,1.859582977E0,-2.145787811E0,8.954528961E0,9.393936507E0
3.227991250E0,1.927841034E0,-2.157463531E0,8.972042542E0,9.427023247E0
3.238009250E0,1.975891113E0,-2.151775360E0,9.030271454E0,9.491052914E0
3.248027250E0,1.959874420E0,-2.123783569E0,9.142687683E0,9.588550592E0
3.258045250E0,1.884880371E0,-2.100132751E0,9.290430450E0,9.709553519E0
3.268063250E0,1.710642700E0,-2.117646332E0,9.472751312E0,9.856152488E0
3.278081250E0,1.507365417E0,-2.202669525E0,9.593250732E0,9.957628390E0
3.288099250E0,1.318907318E0,-2.327360229E0,9.640103302E0,1.000438473E1
3.298117250E0,1.189276886E0,-2.460882568E0,9.602681122E0,9.984077687E0
3.308135250E0,1.116378479E0,-2.582429810E0,9.530231781E0,9.936828590E0
3.318153250E0,1.038989410E0,-2.616858215E0,9.470206604E0,9.879891651E0
3.328171250E0,9.636959839E-1,-2.506986694E0,9.442663879E0,9.817209042E0
3.338189250E0,8.988807678E-1,-2.300715637E0,9.483828278E0,9.800218257E0
3.348207250E0,8.773255920E-1,-2.082170105E0,9.563013611E0,9.826309677E0
3.358225250E0,9.271719360E-1,-1.925146637E0,9.653874664E0,9.887524129E0
3.368243250E0,1.037642212E0,-1.858235779E0,9.722432098E0,9.952659317E0
3.378261250E0,1.185235291E0,-1.880240021E0,9.744735718E0,9.994996720E0
3.388279250E0,1.328038330E0,-1.947300568E0,9.712402954E0,9.994320209E0
3.398297250E0,1.434017944E0,-2.020348663E0,9.640851746E0,9.954106618E0
3.408315250E0,1.494342499E0,-2.095791779E0,9.563462677E0,9.903798315E0
3.418333250E0,1.505419464E0,-2.153421936E0,9.524543610E0,9.880305905E0
3.428351250E0,1.500180359E0,-2.180814972E0,9.463769989E0,9.826974990E0
3.438369250E0,1.478325806E0,-2.182461548E0,9.386530609E0,9.749643197E0
3.448387250E0,1.431772614E0,-2.171085205E0,9.311835938E0,9.668188678E0
3.458405250E0,1.412762146E0,-2.162552948E0,9.253457336E0,9.607237106E0
3.468423250E0,1.450483704E0,-2.168989563E0,9.237141266E0,9.598603933E0
3.478441250E0,1.531465302E0,-2.161804504E0,9.253008270E0,9.624808919E0
3.488459250E0,1.635199585E0,-2.141297150E0,9.330996094E0,9.712184063E0
3.498477250E0,1.742825775E0,-2.107018433E0,9.419462128E0,9.808324787E0
3.508495250E0,1.808389435E0,-2.061662750E0,9.485624542E0,9.874097356E0
3.518513250E0,1.822460175E0,-2.010918274E0,9.524244232E0,9.903352038E0
3.528531250E0,1.772763519E0,-1.989213409E0,9.514364777E0,9.880424970E0
3.538549250E0,1.654509430E0,-1.981130219E0,9.459429016E0,9.805257554E0
3.548567250E0,1.521286469E0,-1.995650024E0,9.419761505E0,9.748273609E0
3.558585250E0,1.431622925E0,-2.035018158E0,9.431137848E0,9.753830233E0
3.568603250E0,1.403930511E0,-2.126477966E0,9.513466644E0,9.848805867E0
3.578621250E0,1.388512573E0,-2.279010773E0,9.630074158E0,9.993006832E0
3.588639250E0,1.387614441E0,-2.454745331E0,9.734107819E0,1.013430331E1
3.598657250E0,1.413211212E0,-2.606380005E0,9.782008209E0,1.022145133E1
3.608675250E0,1.458866272E0,-2.707120514E0,9.747130737E0,1.022073138E1
3.618693250E0,1.522034912E0,-2.695893860E0,9.626032562E0,1.011162385E1
3.628711250E0,1.568139038E0,-2.599494324E0,9.469607849E0,9.944340280E0
3.638729250E0,1.641486511E0,-2.433788910E0,9.327852631E0,9.778887520E0
3.648747250E0,1.731599121E0,-2.225721588E0,9.221423950E0,9.642973181E0
3.658765250E0,1.811532898E0,-2.052531738E0,9.151519318E0,9.552216696E0
3.668783250E0,1.865720215E0,-1.925745392E0,9.123826904E0,9.509659542E0
3.678801250E0,1.878743134E0,-1.854044495E0,9.078620911E0,9.454549931E0
3.688819250E0,1.859133911E0,-1.838776245E0,9.049281921E0,9.419500001E0
3.698837250E0,1.805844727E0,-1.860780487E0,9.026080170E0,9.391150219E0
3.708855250E0,1.746268616E0,-1.931583252E0,9.045988770E0,9.413308704E0
3.718873250E0,1.701362000E0,-2.019899597E0,9.140891418E0,9.514752911E0
3.728891250E0,1.679208069E0,-2.117197266E0,9.298064575E0,9.682782082E0
3.738909250E0,1.647623749E0,-2.237996063E0,9.459728394E0,9.859500579E0
3.748927250E0,1.641785889E0,-2.358046417E0,9.584868164E0,1.000627511E1
3.758945250E0,1.629511414E0,-2.456092529E0,9.653425598E0,1.009338019E1
3.768963250E0,1.616488495E0,-2.462229767E0,9.690099335E0,1.012786432E1
3.778981250E0,1.580862579E0,-2.390528870E0,9.725575562E0,1.013906183E1
3.788999250E0,1.509461060E0,-2.309098206E0,9.748927002E0,1.013173158E1
3.799017042E0,1.421593781E0,-2.256557465E0,9.715396729E0,1.007481583E1
3.809035042E0,1.318458252E0,-2.215692444E0,9.657018127E0,9.995280100E0
3.819053042E0,1.237027588E0,-2.228116608E0,9.571246490E0,9.904721109E0
3.829071042E0,1.183439026E0,-2.254461823E0,9.444909210E0,9.782097731E0
3.839089042E0,1.191971283E0,-2.248773651E0,9.308842163E0,9.650508841E0
3.849107042E0,1.187630310E0,-2.207309875E0,9.207802277E0,9.542866729E0
3.859125042E0,1.192120972E0,-2.145488434E0,9.218280487E0,9.539442760E0
3.869143042E0,1.186881866E0,-2.077230377E0,9.307944031E0,9.610483686E0
3.879161042E0,1.134790192E0,-2.020198975E0,9.424850922E0,9.705501923E0
3.889179042E0,1.064137115E0,-1.979932709E0,9.486672363E0,9.749331970E0
3.899197042E0,9.868977356E-1,-1.970053253E0,9.472152557E0,9.725057893E0
3.909215042E0,9.346563721E-1,-1.971699829E0,9.446555786E0,9.695287462E0
3.919233042E0,9.520202637E-1,-1.998045044E0,9.420210571E0,9.676719164E0
3.929251042E0,1.016087036E0,-2.057022400E0,9.426796875E0,9.701972652E0
3.939269042E0,1.081201630E0,-2.141147461E0,9.424252167E0,9.724712763E0
3.949287042E0,1.104403381E0,-2.213746490E0,9.427245941E0,9.746453016E0
3.959305042E0,1.108295288E0,-2.251767426E0,9.425449677E0,9.753864700E0
3.969323042E0,1.110839996E0,-2.236798553E0,9.417665863E0,9.743185494E0
3.979341042E0,1.147064667E0,-2.218686218E0,9.428144073E0,9.753370010E0
3.989359042E0,1.200503540E0,-2.249372406E0,9.479786682E0,9.816681746E0
3.999377042E0,1.251996460E0,-2.363135834E0,9.532327423E0,9.900362226E0
4.009395042E0,1.285227356E0,-2.489622803E0,9.550439758E0,9.952935780E0
4.019413042E0,1.309925995E0,-2.540367279E0,9.537416840E0,9.956489944E0
4.029431042E0,1.333876190E0,-2.483335876E0,9.472451935E0,9.882991876E0
4.039449042E0,1.344953156E0,-2.346221008E0,9.394314423E0,9.775827100E0
4.049467042E0,1.350791016E0,-2.196681976E0,9.356892242E0,9.705744717E0
4.059485042E0,1.357377319E0,-2.056573334E0,9.355844421E0,9.674905266E0
4.069503042E0,1.352886658E0,-1.973645782E0,9.376052399E0,9.676566466E0
4.079521042E0,1.315913544E0,-1.955084381E0,9.394464111E0,9.685553125E0
4.089539042E0,1.275347900E0,-2.000589752E0,9.408534851E0,9.703061355E0
4.099557042E0,1.273851013E0,-2.078278198E0,9.445058899E0,9.754541213E0
4.109575042E0,1.326391754E0,-2.189347229E0,9.489516449E0,9.828706874E0
4.119593042E0,1.389111328E0,-2.339934082E0,9.523495789E0,9.904640015E0
4.129611042E0,1.420396271E0,-2.501298523E0,9.533674622E0,9.958161058E0
4.139629042E0,1.441801758E0,-2.602937164E0,9.514813843E0,9.969240525E0
4.149647042E0,1.465751953E0,-2.607727203E0,9.479786682E0,9.940574706E0
4.159665042E0,1.510359192E0,-2.546354828E0,9.419162750E0,9.873486452E0
4.169683042E0,1.554517365E0,-2.443069611E0,9.364676056E0,9.802156446E0
4.179701042E0,1.571282501E0,-2.361638947E0,9.336384888E0,9.757784071E0
4.189719042E0,1.531016235E0,-2.302811279E0,9.334139557E0,9.735148266E0
4.199737042E0,1.426683197E0,-2.265389099E0,9.353449402E0,9.729050747E0
4.209755042E0,1.309177551E0,-2.210004272E0,9.406738586E0,9.751143296E0
4.219773042E0,1.239123230E0,-2.148781586E0,9.487720184E0,9.806606089E0
4.229791042E0,1.185235291E0,-2.104024658E0,9.554181976E0,9.854648431E0
4.239809042E0,1.159488831E0,-2.119292908E0,9.595346375E0,9.894770782E0
4.249827042E0,1.180145874E0,-2.184856567E0,9.592053223E0,9.908270663E0
4.259845042E0,1.228794708E0,-2.256557465E0,9.516161041E0,9.856942172E0
4.269863042E0,1.285526733E0,-2.305056610E0,9.410929871E0,9.774019950E0
4.279881042E0,1.418899384E0,-2.312990112E0,9.298363953E0,9.686215511E0
4.289899042E0,1.553619232E0,-2.296524353E0,9.208401031E0,9.616777339E0
4.299917042E0,1.586251373E0,-2.304457855E0,9.137298889E0,9.555990290E0
4.309935042E0,1.489702148E0,-2.342778168E0,9.118587799E0,9.531865792E0
4.319953042E0,1.303190002E0,-2.367776184E0,9.192683716E0,9.581758823E0
4.329971042E0,1.062939606E0,-2.350711670E0,9.319320374E0,9.669819967E0
4.339989042E0,8.668473816E-1,-2.291135559E0,9.496402130E0,9.807261593E0
4.350007042E0,8.991801453E-1,-2.247875519E0,9.690847778E0,9.988693605E0
4.360025042E0,1.146765289E0,-2.209106140E0,9.854457550E0,1.016393399E1
4.370043042E0,1.324146423E0,-2.147434387E0,9.888736267E0,1.020548593E1
4.380061042E0,1.436113586E0,-2.082918549E0,9.825268250E0,1.014578080E1
4.390079042E0,1.582359467E0,-2.028581543E0,9.704918518E0,1.004014183E1
4.400097042E0,1.660796356E0,-2.026635590E0,9.510472870E0,9.864815789E0
4.410115042E0,1.612596588E0,-2.128274231E0,9.283245392E0,9.659640985E0
4.420133042E0,1.522184601E0,-2.261946259E0,9.107660522E0,9.506993585E0
4.430151042E0,1.435065765E0,-2.347568207E0,8.999136200E0,9.410363573E0
4.440169042E0,1.304986267E0,-2.385738831E0,8.994795227E0,9.396865440E0
4.450187042E0,1.238973541E0,-2.383194122E0,9.072184296E0,9.461458532E0
4.460205042E0,1.394200745E0,-2.322570190E0,9.228758698E0,9.618113906E0
4.470223042E0,1.683249664E0,-2.173480225E0,9.338779907E0,9.734996450E0
4.480241042E0,1.760938110E0,-2.047292633E0,9.372908936E0,9.754164858E0
4.490259042E0,1.713636475E0,-1.989961853E0,9.392069092E0,9.752305367E0
4.500277042E0,1.661544800E0,-1.952539673E0,9.435478821E0,9.777596989E0
4.510295042E0,1.643731842E0,-1.930834808E0,9.485624542E0,9.818709201E0
4.520313042E0,1.809137878E0,-1.923649750E0,9.544452209E0,9.903028638E0
4.530331042E0,2.039957886E0,-2.017953644E0,9.589059448E0,1.000917710E1
4.540349042E0,2.043400726E0,-2.206112366E0,9.504185944E0,9.968548979E0
4.550367042E0,1.795366516E0,-2.326162720E0,9.326954498E0,9.778877959E0
4.560385042E0,1.572929077E0,-2.416125641E0,9.207353210E0,9.648166776E0
4.570403042E0,1.395398254E0,-2.398312683E0,9.113498383E0,9.526536243E0
4.580421042E0,1.169218597E0,-2.235151978E0,9.060957642E0,9.405526560E0
4.590439042E0,9.298663330E-1,-2.075284424E0,9.162596283E0,9.440584065E0
4.600457042E0,8.313711548E-1,-1.990410919E0,9.425599365E0,9.669272828E0
4.610475042E0,8.849597168E-1,-1.944905548E0,9.706714783E0,9.939120845E0
4.620493042E0,9.728269958E-1,-1.913470917E0,9.853260040E0,1.008436893E1
4.630511042E0,1.051563263E0,-1.878892822E0,9.918973389E0,1.014997816E1
4.640529042E0,1.138682098E0,-1.856888580E0,9.937534790E0,1.017345712E1
4.650547042E0,1.200653229E0,-1.867815857E0,9.962832184E0,1.020726846E1
4.660565042E0,1.231638794E0,-1.958078156E0,9.993069305E0,1.025731146E1
4.670583042E0,1.211879883E0,-2.115101624E0,9.990674286E0,1.028376781E1
4.680601042E0,1.193168793E0,-2.278412018E0,9.932894440E0,1.026046807E1
4.690619042E0,1.218615875E0,-2.404000854E0,9.758507080E0,1.012386809E1
4.700637042E0,1.346000977E0,-2.447410583E0,9.483977966E0,9.886727227E0
4.710655042E0,1.525777130E0,-2.421514435E0,9.119186554E0,9.557786952E0
4.720673042E0,1.666035461E0,-2.344125366E0,8.785530396E0,9.244249143E0
4.730691042E0,1.805844727E0,-2.232158203E0,8.573271790E0,9.041271736E0
4.740709042E0,1.952090607E0,-2.120789795E0,8.534352722E0,9.007973328E0
4.750727042E0,1.990859985E0,-2.062710571E0,8.671317902E0,9.132910409E0
4.760745042E0,1.889520721E0,-2.096091156E0,8.905880127E0,9.342300976E0
4.770763042E0,1.715881805E0,-2.204914856E0,9.189390564E0,9.604727941E0
4.780781042E0,1.546134796E0,-2.300715637E0,9.468859406E0,9.866261891E0
4.790799042E0,1.470691681E0,-2.356699219E0,9.701026611E0,1.009093071E1
4.800821792E0,1.505419464E0,-2.366129608E0,9.867779846E0,1.025855429E1
4.810839792E0,1.593286743E0,-2.313439178E0,9.931397552E0,1.032100871E1
4.820857792E0,1.693578186E0,-2.214794312E0,9.897717590E0,1.028291468E1
4.830875792E0,1.776206360E0,-2.113754425E0,9.764644318E0,1.014746990E1
4.840893792E0,1.814376984E0,-2.048041077E0,9.573042755E0,9.956384067E0
4.850911792E0,1.872605896E0,-2.054777069E0,9.389973450E0,9.792873073E0
4.860929792E0,1.909429321E0,-2.093696136E0,9.227411499E0,9.652699458E0
4.870947792E0,1.962269440E0,-2.133213959E0,9.099577332E0,9.550047684E0
4.880965792E0,2.000440063E0,-2.174378357E0,9.027427368E0,9.498638143E0
4.890983792E0,1.956281891E0,-2.215093689E0,9.002129974E0,9.474809917E0
4.901001792E0,1.820364532E0,-2.252515869E0,9.045988770E0,9.498287614E0
4.911019792E0,1.706451416E0,-2.247725830E0,9.157955933E0,9.582922556E0
4.921037792E0,1.673968964E0,-2.171534271E0,9.337133331E0,9.731381815E0
4.931055792E0,1.624871063E0,-2.084415436E0,9.534872131E0,9.894381246E0
4.941073792E0,1.541195068E0,-2.069446564E0,9.673783264E0,1.001199151E1
4.951092792E0,1.433419189E0,-2.084864502E0,9.731712799E0,1.005522673E1
4.961109792E0,1.365161133E0,-2.100581818E0,9.761949921E0,1.007828235E1
4.971128792E0,1.385518799E0,-2.100432129E0,9.779613190E0,1.009813407E1
4.981145792E0,1.486259308E0,-2.079625397E0,9.804012451E0,1.013175546E1
4.991164792E0,1.630858612E0,-2.052831116E0,9.726623383E0,1.007377873E1
5.001182792E0,1.780697021E0,-2.044448547E0,9.557026062E0,9.934153154E0
5.011200792E0,1.850152588E0,-2.094594269E0,9.371561737E0,9.779394620E0
5.021218792E0,1.867516479E0,-2.164349213E0,9.224118347E0,9.656934534E0
5.031236792E0,1.869761810E0,-2.207459564E0,9.132957916E0,9.580177830E0
5.041254792E0,1.810934143E0,-2.232607269E0,9.081464996E0,9.525598363E0
5.051272792E0,1.714534607E0,-2.246378632E0,9.038204956E0,9.469688205E0
5.061290792E0,1.642684021E0,-2.232607269E0,9.013805695E0,9.430357316E0
5.071308792E0,1.612147522E0,-2.181713104E0,9.063951416E0,9.461189512E0
5.081326792E0,1.626218262E0,-2.114203491E0,9.183552704E0,9.563058219E0
5.091344792E0,1.642384644E0,-2.047292633E0,9.382638702E0,9.742830362E0
5.101362792E0,1.627864838E0,-2.018253021E0,9.588760071E0,9.933157045E0
5.111380792E0,1.603166199E0,-2.003733215E0,9.738448792E0,1.007087253E1
5.121398792E0,1.568288727E0,-1.998045044E0,9.837692413E0,1.016031031E1
5.131416792E0,1.525477753E0,-2.000589752E0,9.824220428E0,1.014124000E1
5.141434792E0,1.504820709E0,-2.008672943E0,9.744885406E0,1.006290435E1
5.151452792E0,1.495989075E0,-2.041005707E0,9.623637543E0,9.950783244E0
5.161470792E0,1.512903900E0,-2.091001740E0,9.472002869E0,9.817331859E0
5.171488792E0,1.538500671E0,-2.115700378E0,9.348809052E0,9.707904155E0
5.181506792E0,1.560504913E0,-2.149080963E0,9.238039398E0,9.612236810E0
5.191524792E0,1.598226471E0,-2.183958435E0,9.185798035E0,9.576162479E0
5.201542792E0,1.613345032E0,-2.223925323E0,9.169931030E0,9.572688292E0
5.211560792E0,1.613195343E0,-2.259700928E0,9.184001770E0,9.594505511E0
5.221578792E0,1.592837677E0,-2.279609528E0,9.235195312E0,9.644821612E0
5.231596792E0,1.598825226E0,-2.270628204E0,9.296118622E0,9.702052153E0
5.241614792E0,1.595681763E0,-2.245929565E0,9.362131348E0,9.759093363E0
5.251632792E0,1.573827209E0,-2.224973145E0,9.443861389E0,9.829239824E0
5.261650792E0,1.536255341E0,-2.182012482E0,9.513017578E0,9.880220766E0
5.271668792E0,1.520538025E0,-2.140548706E0,9.579179993E0,9.932505927E0
5.281686792E0,1.513802032E0,-2.116598511E0,9.619446259E0,9.965206078E0
5.291704792E0,1.499581604E0,-2.095492401E0,9.611512756E0,9.950930150E0
5.301722792E0,1.502874756E0,-2.107018433E0,9.551337891E0,9.895767515E0
5.311740792E0,1.532812500E0,-2.142943726E0,9.476643219E0,9.836080961E0
5.321758792E0,1.552870789E0,-2.187101898E0,9.405690765E0,9.780687152E0
5.331776792E0,1.550625458E0,-2.237097931E0,9.309889984E0,9.699644219E0
5.341794792E0,1.541344757E0,-2.232457581E0,9.253756714E0,9.643216467E0
5.351812792E0,1.545086975E0,-2.184557190E0,9.228159943E0,9.608252693E0
5.361830792E0,1.546733551E0,-2.100731506E0,9.239835663E0,9.601042684E0
5.371848792E0,1.566193085E0,-2.046095123E0,9.322463837E0,9.672011064E0
5.381866792E0,1.592089233E0,-2.011966095E0,9.425898743E0,9.768844497E0
5.391884792E0,1.593735809E0,-2.015408936E0,9.514963531E0,9.855779929E0
5.401902792E0,1.560654602E0,-2.053729248E0,9.585167542E0,9.926171639E0
5.411920792E0,1.526076508E0,-2.107317810E0,9.611662445E0,9.957597743E0
5.421938792E0,1.499581604E0,-2.101779327E0,9.552984467E0,9.895743203E0
5.431956792E0,1.513502655E0,-2.110610962E0,9.486971741E0,9.836056208E0
5.441974792E0,1.589843903E0,-2.129621429E0,9.432634735E0,9.799871893E0
5.451992792E0,1.717827759E0,-2.106719055E0,9.384734344E0,9.770488018E0
5.462010792E0,1.820514221E0,-2.044149170E0,9.362430725E0,9.754379885E0
5.472028792E0,1.908082123E0,-2.010768585E0,9.380692749E0,9.781685138E0
5.482046792E0,1.945653992E0,-2.020049286E0,9.373807068E0,9.784397146E0
5.492064792E0,1.957329712E0,-2.071392517E0,9.351952515E0,9.776544502E0
5.502082792E0,1.899400177E0,-2.135758667E0,9.350605316E0,9.777678963E0
5.512100792E0,1.758243713E0,-2.208806763E0,9.391470337E0,9.806628542E0
5.522118792E0,1.621278534E0,-2.274220734E0,9.449699249E0,9.853803323E0
5.532136792E0,1.535506897E0,-2.263443146E0,9.480385437E0,9.867049424E0
5.542154792E0,1.541344757E0,-2.218386841E0,9.482032013E0,9.859306007E0
5.552172792E0,1.589245148E0,-2.155966644E0,9.416168976E0,9.789695117E0
5.562190792E0,1.628613281E0,-2.126777344E0,9.338779907E0,9.715367890E0
5.572208792E0,1.654509430E0,-2.136507111E0,9.302704926E0,9.687227829E0
5.582226792E0,1.659748535E0,-2.150128784E0,9.325008545E0,9.712548757E0
5.592244792E0,1.660197601E0,-2.184108124E0,9.397008820E0,9.789298194E0
5.602262792E0,1.600771179E0,-2.232008514E0,9.481133881E0,9.870979183E0
5.612280792E0,1.512604523E0,-2.245330811E0,9.521849213E0,9.899247210E0
5.622298792E0,1.417701874E0,-2.224374390E0,9.496851196E0,9.856363562E0
5.632316792E0,1.346000977E0,-2.161804504E0,9.440568237E0,9.778008283E0
5.642334792E0,1.325643311E0,-2.100881195E0,9.389374695E0,9.712434769E0
5.652352792E0,1.352437592E0,-2.034718781E0,9.361083527E0,9.674660343E0
5.662370792E0,1.392853546E0,-2.024689636E0,9.390123138E0,9.706380462E0
5.672388792E0,1.419498138E0,-2.059866486E0,9.435778198E0,9.761758812E0
5.682406792E0,1.464853821E0,-2.113155670E0,9.486073608E0,9.828367927E0
5.692424792E0,1.531465302E0,-2.139351196E0,9.527088318E0,9.883704838E0
5.702442792E0,1.608854370E0,-2.139500885E0,9.521400146E0,9.890547870E0
5.712460792E0,1.683549042E0,-2.152523804E0,9.475894775E0,9.862062558E0
5.722478792E0,1.727557526E0,-2.164798279E0,9.422306213E0,9.820929741E0
5.732496792E0,1.736838226E0,-2.152673492E0,9.340725861E0,9.741651287E0
5.742514792E0,1.729204102E0,-2.136656799E0,9.299561462E0,9.697282738E0
5.752532792E0,1.715283051E0,-2.124681702E0,9.290879517E0,9.683847916E0
5.762550792E0,1.687440948E0,-2.122735748E0,9.331594849E0,9.717619381E0
5.772568792E0,1.666334839E0,-2.136956177E0,9.376950531E0,9.760658521E0
5.782586792E0,1.644031219E0,-2.144889679E0,9.418863373E0,9.798896755E0
5.792604792E0,1.607656860E0,-2.133962402E0,9.438173218E0,9.809050403E0
5.802619250E0,1.577419739E0,-2.123783569E0,9.460027771E0,9.822974860E0
5.812637250E0,1.563947754E0,-2.124232635E0,9.482032013E0,9.842115015E0
5.822655250E0,1.585652618E0,-2.123334503E0,9.497899017E0,9.860675909E0
5.832673250E0,1.622326355E0,-2.146985321E0,9.485923920E0,9.860235361E0
5.842691250E0,1.641336823E0,-2.156715088E0,9.473799133E0,9.853845775E0
5.852709250E0,1.640887756E0,-2.175426178E0,9.444759521E0,9.829978337E0
5.862727250E0,1.635199585E0,-2.172731781E0,9.416618042E0,9.801394616E0
5.872745250E0,1.631307678E0,-2.178569641E0,9.425449677E0,9.810526593E0
5.882763250E0,1.638492737E0,-2.190395050E0,9.439670105E0,9.828014073E0
5.892781250E0,1.667981415E0,-2.182611237E0,9.439221039E0,9.830811138E0
5.902799250E0,1.686542816E0,-2.154469757E0,9.423952789E0,9.813106174E0
5.912817250E0,1.691632233E0,-2.122885437E0,9.375004578E0,9.760070339E0
5.922835250E0,1.683549042E0,-2.085313568E0,9.325008545E0,9.702507635E0
5.932853250E0,1.663490753E0,-2.074985046E0,9.290430450E0,9.663584344E0
5.942871250E0,1.636097717E0,-2.106269989E0,9.294172668E0,9.669272703E0
5.952889250E0,1.617087250E0,-2.143392792E0,9.326056366E0,9.704866366E0
5.962907250E0,1.618883514E0,-2.174827423E0,9.380692749E0,9.764632845E0
5.972925250E0,1.614542542E0,-2.206711121E0,9.425749054E0,9.814329667E0
5.982943250E0,1.597777405E0,-2.212249603E0,9.463021545E0,9.848640399E0
5.992961250E0,1.577419739E0,-2.192341003E0,9.492061157E0,9.868831599E0
6.002979250E0,1.567240906E0,-2.163900146E0,9.491013336E0,9.859920996E0
6.012997250E0,1.551972656E0,-2.150128784E0,9.464668121E0,9.829120793E0
6.023015250E0,1.528321838E0,-2.162253571E0,9.433532867E0,9.798094228E0
6.033033250E0,1.488804016E0,-2.193089447E0,9.398805084E0,9.765434744E0
6.043051250E0,1.443148956E0,-2.200424194E0,9.383237457E0,9.745239388E0
6.053069250E0,1.410217438E0,-2.180964661E0,9.383836212E0,9.736616565E0
6.063087250E0,1.390458527E0,-2.149530029E0,9.395811310E0,9.738332734E0
6.073105250E0,1.369502106E0,-2.162103882E0,9.415420532E0,9.757067849E0
6.083123250E0,1.382974091E0,-2.196232910E0,9.426347809E0,9.777120708E0
6.093141250E0,1.402583313E0,-2.196382599E0,9.465566254E0,9.817753357E0
6.103159250E0,1.411265259E0,-2.164049835E0,9.492360535E0,9.837666890E0
6.113177250E0,1.425335999E0,-2.125729523E0,9.522447968E0,9.860391676E0
6.123195250E0,1.429676971E0,-2.107617188E0,9.549990692E0,9.883741633E0
6.133214250E0,1.426982574E0,-2.137405243E0,9.557175751E0,9.896685747E0
6.143232250E0,1.449884949E0,-2.190245361E0,9.577982483E0,9.931620691E0
6.153250250E0,1.494941254E0,-2.249372406E0,9.569150848E0,9.942996205E0
6.163268250E0,1.559457092E0,-2.276915131E0,9.542356567E0,9.933419240E0
6.173286250E0,1.639839935E0,-2.276765442E0,9.472901001E0,9.879705930E0
6.183304250E0,1.713935852E0,-2.217039642E0,9.392069092E0,9.801214349E0
6.193322250E0,1.756447449E0,-2.134710846E0,9.281598816E0,9.684532752E0
6.203340250E0,1.761536865E0,-2.045496368E0,9.182654572E0,9.571217922E0
6.213358250E0,1.741328888E0,-1.980082397E0,9.119934998E0,9.493480234E0
6.223376250E0,1.719025269E0,-1.951042786E0,9.088949432E0,9.453603419E0
6.233394250E0,1.683249664E0,-1.981579285E0,9.139993286E0,9.502602968E0
6.243412250E0,1.636247406E0,-2.042951660E0,9.226663055E0,9.590738668E0
6.253430250E0,1.597178650E0,-2.088307343E0,9.351952515E0,9.714474923E0
6.263448250E0,1.559457092E0,-2.125130768E0,9.468260651E0,9.828328797E0
6.273466250E0,1.520837402E0,-2.149829407E0,9.570348358E0,9.926040529E0
6.283484250E0,1.481618958E0,-2.177222443E0,9.662406921E0,1.001486894E1
6.293502250E0,1.480271759E0,-2.184407501E0,9.695937195E0,1.004858392E1
6.303520250E0,1.483115845E0,-2.138453064E0,9.690398712E0,1.003376506E1
6.313538250E0,1.488504639E0,-2.076182556E0,9.641450500E0,9.974153990E0
6.323556250E0,1.492546234E0,-2.037263489E0,9.547745361E0,9.876111495E0
6.333574250E0,1.537901917E0,-2.045496368E0,9.446256409E0,9.786774639E0
6.343592250E0,1.575174408E0,-2.087109833E0,9.387728119E0,9.745082919E0
6.353610250E0,1.607357483E0,-2.151326294E0,9.326804810E0,9.705724644E0
6.363628250E0,1.647474060E0,-2.226320343E0,9.287436676E0,9.691602193E0
6.373646250E0,1.656754761E0,-2.268981628E0,9.239386597E0,9.657089554E0
6.383664250E0,1.676962738E0,-2.303859100E0,9.235345001E0,9.664966015E0
6.393682250E0,1.695673828E0,-2.298919373E0,9.255403290E0,9.686218564E0
6.403700250E0,1.720821533E0,-2.259401550E0,9.282197571E0,9.706972435E0
6.413718250E0,1.696422272E0,-2.221679993E0,9.341025238E0,9.750305791E0
6.423736250E0,1.645228729E0,-2.186353455E0,9.413324890E0,9.802938564E0
6.433754250E0,1.584006042E0,-2.176473999E0,9.511670380E0,9.885240899E0
6.443772250E0,1.563798065E0,-2.182162170E0,9.582772522E0,9.951724742E0
6.453790250E0,1.558858337E0,-2.209405518E0,9.633516998E0,1.000580640E1
6.463808250E0,1.594933319E0,-2.209405518E0,9.630074158E0,1.000817732E1
6.473826250E0,1.610201569E0,-2.152523804E0,9.573042755E0,9.943302037E0
6.483844250E0,1.627565460E0,-2.094444580E0,9.467661896E0,9.832206731E0
6.493862250E0,1.642534332E0,-2.031725006E0,9.362730103E0,9.720418741E0
6.503880250E0,1.643582153E0,-1.991758118E0,9.275760956E0,9.628509958E0
6.513898250E0,1.639241180E0,-1.992506561E0,9.228159943E0,9.582073365E0
6.523916250E0,1.642384644E0,-2.043101349E0,9.211245117E0,9.576989456E0
6.533934250E0,1.648372192E0,-2.113455048E0,9.246571655E0,9.627196399E0
6.543952250E0,1.635648651E0,-2.183509369E0,9.291478271E0,9.683730074E0
6.553970250E0,1.593586121E0,-2.229613495E0,9.367669830E0,9.760324334E0
6.563988250E0,1.530866547E0,-2.253114624E0,9.450298004E0,9.835050089E0
6.574006250E0,1.467997284E0,-2.258353729E0,9.505084076E0,9.879362372E0
6.584024250E0,1.428180084E0,-2.243983612E0,9.522597656E0,9.887114186E0
6.594042250E0,1.450633392E0,-2.201921082E0,9.517208862E0,9.875730769E0
6.604060250E0,1.477577362E0,-2.160008240E0,9.512867889E0,9.866282275E0
6.614078250E0,1.503024445E0,-2.116897888E0,9.514514465E0,9.862369120E0
6.624096250E0,1.531614990E0,-2.097737732E0,9.511820068E0,9.860074497E0
6.634114250E0,1.526974640E0,-2.102527771E0,9.496102753E0,9.845214171E0
6.644132250E0,1.492845612E0,-2.126477966E0,9.476044464E0,9.825778099E0
6.654150250E0,1.472637634E0,-2.157912598E0,9.431586914E0,9.786729796E0
6.664168250E0,1.490600281E0,-2.176473999E0,9.386680298E0,9.750317701E0
6.674186250E0,1.531614990E0,-2.190993805E0,9.357041931E0,9.731419836E0
6.684204250E0,1.580712891E0,-2.195933533E0,9.322314148E0,9.707024178E0
6.694222250E0,1.612895966E0,-2.210004272E0,9.307195587E0,9.701002112E0
6.704240250E0,1.650617523E0,-2.238894196E0,9.318422241E0,9.724719970E0
6.714258250E0,1.697470093E0,-2.261497192E0,9.353449402E0,9.771529562E0
6.724276250E0,1.730102234E0,-2.253114624E0,9.383536835E0,9.804108464E0
6.734294250E0,1.704804840E0,-2.205962677E0,9.379195862E0,9.784781341E0
6.744312250E0,1.646875305E0,-2.154020691E0,9.392667847E0,9.776206457E0
6.754330250E0,1.624571686E0,-2.096540222E0,9.421408081E0,9.787627102E0
6.764348250E0,1.612297211E0,-2.088157654E0,9.447603607E0,9.809032501E0
6.774366250E0,1.594184875E0,-2.114802246E0,9.463620300E0,9.827203221E0
6.784384250E0,1.579964447E0,-2.144440613E0,9.464518433E0,9.832193161E0
6.794402250E0,1.551523590E0,-2.173330536E0,9.457333374E0,9.827092429E0
6.804419625E0,1.548380127E0,-2.178419952E0,9.428144073E0,9.799637502E0
6.814438625E0,1.563348999E0,-2.178569641E0,9.416618042E0,9.790961195E0
6.824456625E0,1.592538300E0,-2.159259796E0,9.421707458E0,9.796282588E0
6.834474625E0,1.621577911E0,-2.128124542E0,9.436826019E0,9.808777411E0
6.844492625E0,1.622625732E0,-2.122586060E0,9.448651428E0,9.819129272E0
6.854510625E0,1.618434448E0,-2.161804504E0,9.472901001E0,9.850308734E0
6.864528625E0,1.611848145E0,-2.206711121E0,9.478140106E0,9.864216557E0
6.874546625E0,1.617236938E0,-2.224973145E0,9.439370728E0,9.831972363E0
6.884564625E0,1.617236938E0,-2.205064545E0,9.362281036E0,9.753464572E0
6.894582625E0,1.616787872E0,-2.172133026E0,9.304950256E0,9.690937219E0
6.904600625E0,1.617835693E0,-2.160457306E0,9.289981384E0,9.674126432E0
6.914618625E0,1.623523865E0,-2.175725555E0,9.307794342E0,9.695599360E0
6.924636625E0,1.606908417E0,-2.223476257E0,9.355095978E0,9.749042111E0
6.934654625E0,1.573677521E0,-2.265987854E0,9.397906952E0,9.794478902E0
6.944672625E0,1.545086975E0,-2.262095947E0,9.435628510E0,9.825245911E0
6.954690625E0,1.539398804E0,-2.212249603E0,9.455537109E0,9.832140103E0
6.964708625E0,1.542841644E0,-2.165846100E0,9.458530884E0,9.825225501E0
6.974726625E0,1.522184601E0,-2.147883453E0,9.467811584E0,9.826998804E0
6.984744625E0,1.535357208E0,-2.146985321E0,9.473350067E0,9.834186759E0
6.994762625E0,1.534459076E0,-2.142045593E0,9.450597382E0,9.811050650E0
7.004780625E0,1.546733551E0,-2.154769135E0,9.424401855E0,9.790544675E0
7.014798625E0,1.571432190E0,-2.173779602E0,9.421408081E0,9.795797421E0
7.024816625E0,1.610950012E0,-2.180814972E0,9.411678314E0,9.794427118E0
7.034834625E0,1.658551025E0,-2.162403259E0,9.411229248E0,9.797857690E0
7.044852625E0,1.667831726E0,-2.132465515E0,9.398505707E0,9.780643198E0
7.054870625E0,1.662891998E0,-2.120041351E0,9.373507690E0,9.753072929E0
7.064888625E0,1.644031219E0,-2.134561157E0,9.355994110E0,9.736211572E0
7.074906625E0,1.581311646E0,-2.160157928E0,9.350305939E0,9.725998660E0
7.084924625E0,1.520238647E0,-2.181264038E0,9.339378662E0,9.710459935E0
7.094942625E0,1.491348724E0,-2.207758942E0,9.365274811E0,9.736872847E0
7.104960625E0,1.540746002E0,-2.211201782E0,9.411828003E0,9.790087738E0
7.114978625E0,1.598226471E0,-2.204166412E0,9.460027771E0,9.844023713E0
7.124996625E0,1.634900208E0,-2.183060303E0,9.500743103E0,9.884471179E0
7.135014625E0,1.656455383E0,-2.167043610E0,9.535620575E0,9.918063430E0
7.145032625E0,1.649569702E0,-2.142943726E0,9.523196411E0,9.899725143E0
7.155050625E0,1.632056122E0,-2.111658783E0,9.468560028E0,9.837496582E0
7.165068625E0,1.600322113E0,-2.086810455E0,9.421557770E0,9.781695127E0
7.175086625E0,1.568737793E0,-2.075583801E0,9.373507690E0,9.727879152E0
7.185104625E0,1.551373901E0,-2.099533997E0,9.334438934E0,9.692603066E0
7.195122625E0,1.544188843E0,-2.150128784E0,9.310488739E0,9.679502752E0
7.205140625E0,1.543141022E0,-2.201472015E0,9.281299438E0,9.662829943E0
7.215158625E0,1.522783356E0,-2.248474274E0,9.243727570E0,9.634365837E0
7.225176625E0,1.469045105E0,-2.276915131E0,9.233099670E0,9.622503082E0
7.235194625E0,1.422791290E0,-2.277663574E0,9.234446869E0,9.617021129E0
7.245212625E0,1.409169617E0,-2.246678009E0,9.307794342E0,9.678241400E0
7.255230625E0,1.444496155E0,-2.255060577E0,9.479187927E0,9.850221881E0
7.265248625E0,1.542691956E0,-2.325114899E0,9.721683655E0,1.011420738E1
7.275266625E0,1.699565735E0,-2.424358521E0,9.983938293E0,1.041369587E1
7.285284625E0,1.893113251E0,-2.466421051E0,1.013572266E1,1.060188589E1
7.295302625E0,1.982627106E0,-2.442171478E0,1.008557693E1,1.056474675E1
7.305320625E0,1.938917999E0,-2.371368713E0,9.827812958E0,1.029410997E1
7.315338625E0,1.816622314E0,-2.283202057E0,9.452842712E0,9.892894602E0
7.325356625E0,1.712888031E0,-2.135908356E0,9.078770599E0,9.482624400E0
7.335374625E0,1.686991882E0,-1.967059479E0,8.770860901E0,9.145669224E0
7.345392625E0,1.744172974E0,-1.835782471E0,8.565487976E0,8.931955044E0
7.355410625E0,1.856439514E0,-1.832788696E0,8.519683228E0,8.910133802E0
7.365428625E0,1.935325470E0,-1.916015625E0,8.630452881E0,9.049934667E0
7.375446625E0,1.959425354E0,-1.986818390E0,8.851692810E0,9.281123889E0
7.385465625E0,1.940714264E0,-2.023342438E0,9.123976593E0,9.545011019E0
7.395483625E0,1.848805389E0,-2.060016174E0,9.396859131E0,9.796055815E0
7.405501625E0,1.731898499E0,-2.114652557E0,9.637408905E0,1.001752855E1
7.415519625E0,1.616787872E0,-2.182461548E0,9.838889923E0,1.020690435E1
7.425537625E0,1.512305145E0,-2.229912872E0,1.001297791E1,1.036915160E1
7.435555625E0,1.492995300E0,-2.218237152E0,1.009785141E1,1.044587067E1
7.445573625E0,1.516346741E0,-2.140698395E0,1.007255402E1,1.040856577E1
7.455591625E0,1.520837402E0,-2.034269714E0,9.938283234E0,1.025771287E1
7.465609625E0,1.508562927E0,-1.967508545E0,9.726473694E0,1.003748686E1
7.475627625E0,1.501377869E0,-1.932930450E0,9.492210846E0,9.802674246E0
7.485645625E0,1.511107635E0,-1.930385742E0,9.280550995E0,9.598878172E0
7.495663625E0,1.551074524E0,-1.978884888E0,9.142088928E0,9.481540357E0
7.505681625E0,1.623224487E0,-2.189646606E0,9.173523560E0,9.569897831E0
7.515699625E0,1.833387451E0,-2.416874084E0,9.273216248E0,9.756799140E0
7.525717625E0,1.930385742E0,-2.406695251E0,9.094787292E0,9.603839182E0
7.535735625E0,1.603764954E0,-2.295775909E0,8.871451721E0,9.302972895E0
7.545753625E0,1.362167358E0,-2.309996338E0,8.890911255E0,9.286543272E0
7.555771625E0,1.351838837E0,-2.272574158E0,9.059161377E0,9.437185301E0
7.565789625E0,1.430575104E0,-2.223027191E0,9.275760956E0,9.645109451E0
7.575807625E0,1.502575378E0,-2.273472290E0,9.499844971E0,9.882988591E0
7.585825625E0,1.518592072E0,-2.365979919E0,9.684261475E0,1.008409159E1
7.595843625E0,1.541045380E0,-2.411335602E0,9.776170349E0,1.018640599E1
7.605861625E0,1.511706390E0,-2.402204590E0,9.751920776E0,1.015656447E1
7.615879625E0,1.411265259E0,-2.332449646E0,9.628577271E0,1.000707206E1
7.625897625E0,1.355880432E0,-2.235151978E0,9.480086060E0,9.833938570E0
7.635915625E0,1.440005493E0,-2.205064545E0,9.411079559E0,9.772632396E0
7.645933625E0,1.546434174E0,-2.257156219E0,9.384285278E0,9.775020360E0
7.655951625E0,1.637594604E0,-2.337539063E0,9.373657379E0,9.798533442E0
7.665969625E0,1.723216553E0,-2.434687042E0,9.414522400E0,9.875748493E0
7.675987625E0,1.741777954E0,-2.463127899E0,9.498647461E0,9.966197523E0
7.686005625E0,1.745220795E0,-2.381846924E0,9.476493530E0,9.925871247E0
7.696023625E0,1.865869904E0,-2.278861084E0,9.276509399E0,9.732846705E0
7.706041625E0,1.929786987E0,-2.252815247E0,9.031768341E0,9.506423813E0
7.716059625E0,1.875150604E0,-2.242486725E0,8.881929932E0,9.350594409E0
7.726077625E0,1.752405853E0,-2.205812988E0,8.855435028E0,9.292753454E0
7.736095625E0,1.656605072E0,-2.153571625E0,8.951235809E0,9.354508732E0
7.746113625E0,1.620679779E0,-2.105072479E0,9.159752197E0,9.537242442E0
7.756131625E0,1.645528107E0,-2.026336212E0,9.404193878E0,9.759747112E0
7.766149625E0,1.727557526E0,-1.922751617E0,9.586514740E0,9.928881792E0
7.776167625E0,1.786983948E0,-1.830992432E0,9.673334198E0,1.000596019E1
7.786185625E0,1.791025543E0,-1.819316711E0,9.689650269E0,1.002032974E1
7.796203625E0,1.802252197E0,-1.830243988E0,9.701924744E0,1.003619698E1
7.806221542E0,1.821412354E0,-1.939067688E0,9.666747894E0,1.002614289E1
7.816239542E0,1.872755585E0,-2.006577301E0,9.607770538E0,9.992137943E0
7.826257542E0,1.913021851E0,-2.098635864E0,9.512119446E0,9.926950259E0
7.836275542E0,1.899549866E0,-2.180216217E0,9.390123138E0,9.825275823E0
7.846293542E0,1.699416046E0,-2.192939758E0,9.235494690E0,9.643202883E0
7.856311542E0,1.547781372E0,-2.230062561E0,9.107510834E0,9.503449889E0
7.866329542E0,1.513203278E0,-2.198777618E0,9.064550171E0,9.449363840E0
7.876348542E0,1.601070557E0,-2.189347229E0,9.166488190E0,9.559350080E0
7.886366542E0,1.715582428E0,-2.172582092E0,9.317224731E0,9.719774314E0
7.896384542E0,1.837279358E0,-2.137554932E0,9.442963257E0,9.854658370E0
7.906402542E0,1.860630798E0,-2.085463257E0,9.517657928E0,9.919521985E0
7.916420542E0,1.860481110E0,-2.071093140E0,9.633666687E0,1.002787867E1
7.926438542E0,1.863325195E0,-2.092947693E0,9.793983307E0,1.018697795E1
7.936456542E0,1.761087799E0,-2.154469757E0,9.714199219E0,1.010489172E1
7.946474542E0,1.632056122E0,-2.245181122E0,9.577533417E0,9.971639374E0
7.956492542E0,1.640588379E0,-2.318528595E0,9.559870148E0,9.972874326E0
7.966510542E0,2.035616913E0,-2.308200073E0,9.376052399E0,9.868225898E0
7.976528542E0,1.999841309E0,-1.930086365E0,9.106912079E0,9.521577928E0
7.986546542E0,1.936522980E0,-1.685345306E0,8.951535187E0,9.312383812E0
7.996564542E0,1.948647766E0,-1.532962189E0,8.764723663E0,9.108654241E0
8.006582542E0,1.791624298E0,-1.398392029E0,8.671317902E0,8.964216198E0
8.016600542E0,1.677411804E0,-1.322499847E0,8.718320160E0,8.976180848E0
8.026618542E0,1.693578186E0,-1.269210663E0,8.837472382E0,9.087354999E0
8.036636542E0,1.754202118E0,-1.179247742E0,8.829389191E0,9.078874588E0
8.046654542E0,1.641486511E0,-1.092428284E0,8.775501251E0,8.994292620E0
8.056672542E0,1.490899658E0,-1.147364044E0,8.772507477E0,8.971962632E0
8.066690542E0,1.278042297E0,-1.375489655E0,8.920100555E0,9.115566786E0
8.076708542E0,1.191671906E0,-1.829046478E0,9.106313324E0,9.364317130E0
8.086726542E0,1.250349884E0,-2.449057159E0,9.191186829E0,9.593704765E0
8.096744542E0,1.436113586E0,-2.967728577E0,8.962163086E0,9.549356121E0
8.106762542E0,1.695673828E0,-3.347788239E0,8.535699921E0,9.324224845E0
8.116780542E0,1.808688812E0,-3.452869720E0,8.190368042E0,9.070600487E0
8.126798542E0,1.174757080E0,-3.631747742E0,8.856033783E0,9.643597888E0
8.136816542E0,-8.181985474E-1,-3.579955444E0,1.136167328E1,1.194039989E1
8.146834542E0,-1.076561279E0,-2.878813477E0,1.115166000E1,1.156745746E1
8.156852542E0,-7.521858215E-1,-2.316732330E0,1.025652145E1,1.054178659E1
8.166870542E0,-1.040336609E-1,-2.029479675E0,1.033914963E1,1.053696473E1
8.176888542E0,8.199948120E-1,-2.461331635E0,1.017119888E1,1.049684865E1
8.186906542E0,1.269360352E0,-3.245101776E0,9.840835876E0,1.043954079E1
8.196924542E0,1.033899994E0,-3.756887512E0,9.401649170E0,1.017713909E1
8.206942542E0,1.278042297E0,-4.024231567E0,9.152118073E0,1.007914168E1
8.216960542E0,1.575773163E0,-4.211641846E0,8.935069427E0,1.000282229E1
8.226978542E0,1.923050995E0,-4.448449402E0,8.621172180E0,9.889966480E0
8.236996542E0,2.112257538E0,-4.528682556E0,8.490194550E0,9.851598910E0
8.247014542E0,1.684896240E0,-4.250411224E0,8.806935883E0,9.923053490E0
8.257032542E0,5.575904846E-1,-4.208199005E0,8.453071747E0,9.459083887E0
8.267050542E0,1.407073975E-2,-4.058360596E0,9.205556946E0,1.006045563E1
8.277068542E0,1.529818726E-1,-3.590583344E0,9.752818909E0,1.039390056E1
8.287086542E0,3.233276367E-1,-3.192860413E0,9.869576111E0,1.037821907E1
8.297104542E0,4.379891968E-1,-3.101250916E0,9.820478210E0,1.030783120E1
8.307123542E0,6.177653503E-1,-3.142415314E0,9.698631592E0,1.021370955E1
8.317141542E0,7.246430969E-1,-3.140619049E0,9.599537659E0,1.012618975E1
8.327159542E0,6.688092041E-1,-2.959196320E0,9.304351501E0,9.786475641E0
8.337177542E0,6.617738342E-1,-2.805615692E0,9.113947449E0,9.558946705E0
8.347195542E0,7.009922791E-1,-2.725083160E0,8.954528961E0,9.386216348E0
8.357213542E0,8.310717773E-1,-2.571053467E0,8.993747406E0,9.390872624E0
8.367231542E0,9.648934937E-1,-2.452500000E0,9.090596008E0,9.464920047E0
8.377249542E0,9.545649719E-1,-2.296075287E0,9.326655121E0,9.652442787E0
8.387267542E0,8.372090149E-1,-1.984273682E0,9.599687347E0,9.838305654E0
8.397285542E0,5.616320801E-1,-1.734592896E0,9.760902100E0,9.929725722E0
8.407303542E0,2.827619934E-1,-1.722468109E0,9.588161316E0,9.745752313E0
8.417321542E0,2.567161560E-1,-1.876348114E0,9.365424500E0,9.554986211E0
8.427339542E0,3.058140564E-1,-1.968107300E0,9.199270020E0,9.412414009E0
8.437357542E0,3.980223083E-1,-1.954335938E0,9.267977142E0,9.480150369E0
8.447375542E0,5.718109131E-1,-1.847009125E0,9.479187927E0,9.674368930E0
8.457393542E0,7.671546936E-1,-1.687590637E0,9.685608673E0,9.861414901E0
8.467411542E0,7.746391296E-1,-1.462907867E0,9.746831360E0,9.886399080E0
8.477429542E0,6.870712280E-1,-1.325942688E0,9.989925842E0,1.010093111E1
8.487447542E0,7.713459778E-1,-1.413660278E0,1.078881454E1,1.090834219E1
8.497465542E0,7.834707642E-1,-1.605112152E0,1.149040558E1,1.162839765E1
8.507483542E0,6.728507996E-1,-1.616638184E0,1.147663422E1,1.160945219E1
8.517501542E0,4.023632813E-1,-1.430425415E0,1.119267471E1,1.129088040E1
8.527519542E0,-3.143463135E-3,-1.293160858E0,1.078133011E1,1.085860736E1
8.537537542E0,-5.260061646E-1,-1.505419464E0,1.011192215E1,1.023689112E1
8.547555542E0,-3.477268982E-1,-1.957778778E0,9.802515564E0,1.000215592E1
8.557573542E0,5.923182678E-1,-2.312840424E0,9.836644592E0,1.012223536E1
8.567591542E0,8.872050476E-1,-2.528841248E0,9.599537659E0,9.966608958E0
8.577609542E0,4.276606750E-1,-2.578088837E0,9.263935547E0,9.625483755E0
8.587627542E0,-4.403842163E-1,-2.524649963E0,9.373507690E0,9.717532718E0
8.597645542E0,-1.132544861E0,-2.609373779E0,9.721983032E0,1.012958259E1
8.607663542E0,-9.319619751E-1,-2.516117706E0,9.940079498E0,1.029585265E1
8.617681542E0,-8.358618164E-1,-2.821183319E0,1.061742096E1,1.101759357E1
8.627699542E0,-1.071920929E0,-3.312910767E0,1.110839996E1,1.164134623E1
8.637717542E0,-1.340612183E0,-3.610791321E0,1.120420074E1,1.184774955E1
8.647735542E0,-1.444346466E0,-3.811972961E0,1.110001740E1,1.182487466E1
8.657753542E0,-8.867559814E-1,-3.857628021E0,1.093820389E1,1.163236581E1
8.667771542E0,-4.059558105E-1,-4.054319000E0,1.065005310E1,1.140289146E1
8.677789542E0,-7.125183105E-2,-4.023183746E0,1.028301636E1,1.104226017E1
8.687807542E0,-7.888595581E-2,-3.770509186E0,1.009306137E1,1.077463922E1
8.697826542E0,-1.312770081E-1,-3.617677002E0,1.020383102E1,1.082695655E1
8.707844542E0,1.495390320E-1,-3.491788788E0,1.063688049E1,1.119634661E1
8.717862542E0,2.137554932E-1,-3.316054230E0,1.088296875E1,1.137896814E1
8.727880542E0,1.498384094E-1,-3.094365234E0,1.096170502E1,1.139107215E1
8.737898542E0,-1.377136230E-2,-3.140169983E0,1.092548035E1,1.136780445E1
8.747916542E0,-2.649490356E-2,-3.191662903E0,1.094359268E1,1.139954538E1
8.757934542E0,-1.639091492E-1,-3.216211853E0,1.086904770E1,1.133609645E1
8.767952542E0,-3.948788452E-1,-3.200793915E0,1.060843964E1,1.108783128E1
8.777970542E0,-7.180567932E-1,-3.166215820E0,1.041698776E1,1.091119435E1
8.787988542E0,-1.068029022E0,-3.091221771E0,1.029154861E1,1.079871802E1
8.798006542E0,-1.345402222E0,-3.012784882E0,1.006417145E1,1.059124765E1
8.808024500E0,-1.562450867E0,-2.995420990E0,9.991871796E0,1.054757326E1
8.818042500E0,-1.770218811E0,-2.992277527E0,1.007629623E1,1.065922817E1
8.828060500E0,-1.883982239E0,-2.992277527E0,1.016356476E1,1.076109485E1
8.838078500E0,-1.944755859E0,-3.039728851E0,1.026744873E1,1.088313054E1
8.848096500E0,-1.927541656E0,-3.012186127E0,1.028181885E1,1.088597634E1
8.858114500E0,-1.850751343E0,-2.924767914E0,1.020218445E1,1.077330569E1
8.868132500E0,-1.656754761E0,-2.818788300E0,1.026310776E1,1.077134089E1
8.878150500E0,-1.488354950E0,-2.786754913E0,1.027238846E1,1.074724002E1
8.888168500E0,-1.301244049E0,-2.851570129E0,1.021894958E1,1.068885489E1
8.898186500E0,-1.177002411E0,-2.890938263E0,1.005414230E1,1.052751804E1
8.908204500E0,-1.123413849E0,-2.920876007E0,9.783205719E0,1.027154757E1
8.918222500E0,-1.077309723E0,-2.829565887E0,9.686806183E0,1.014895331E1
8.928240500E0,-1.023272095E0,-2.568508759E0,9.798174591E0,1.018079311E1
8.938258500E0,-1.050066376E0,-2.412982178E0,9.978100433E0,1.031928344E1
8.948276500E0,-9.883946228E-1,-2.355202332E0,1.015383499E1,1.047016079E1
8.958294500E0,-7.767347717E-1,-2.264490967E0,1.024439667E1,1.052040395E1
8.968312500E0,-6.255491638E-1,-2.182910614E0,1.017015106E1,1.042057499E1
8.978330500E0,-5.370831299E-1,-2.077679443E0,1.003333557E1,1.026026476E1
8.988348500E0,-6.008505249E-1,-2.005379791E0,9.951455841E0,1.016926953E1
8.998366500E0,-6.965016174E-1,-1.861528931E0,1.001013382E1,1.020554671E1
9.008384500E0,-7.500901794E-1,-1.974843292E0,1.026984375E1,1.048486204E1
9.018402500E0,-7.035369873E-1,-2.169738007E0,1.055110886E1,1.079484254E1
9.028420500E0,-8.202941895E-1,-2.301464081E0,1.058134598E1,1.085976529E1
9.038438500E0,-1.040935364E0,-2.410138092E0,1.045890060E1,1.078336283E1
9.048456500E0,-1.197509766E0,-2.499951324E0,1.035187317E1,1.071657895E1
9.058474500E0,-1.324296112E0,-2.554138641E0,1.026804749E1,1.066349772E1
9.068492500E0,-1.519041138E0,-2.549049225E0,1.007479935E1,1.050270060E1
9.078510500E0,-1.662891998E0,-2.506387939E0,9.922865295E0,1.036872441E1
9.088529500E0,-1.705553284E0,-2.496957550E0,9.902807007E0,1.035419218E1
9.098547500E0,-1.681303711E0,-2.461331635E0,9.950707397E0,1.038756532E1
9.108565500E0,-1.588796082E0,-2.370919647E0,9.835297394E0,1.024102572E1
9.118583500E0,-1.424437866E0,-2.189796295E0,9.615704041E0,9.964235808E0
9.128601500E0,-1.288969574E0,-1.919308777E0,9.400002594E0,9.680146565E0
9.138619500E0,-1.256487122E0,-1.658101959E0,9.102421417E0,9.337137551E0
9.148637500E0,-1.255289612E0,-1.495390320E0,8.856033783E0,9.068697734E0
9.158655500E0,-1.295555878E0,-1.430425415E0,8.635542297E0,8.848568962E0
9.168673500E0,-1.384321289E0,-1.414558411E0,8.468489685E0,8.696702736E0
9.178691500E0,-1.475182343E0,-1.393901367E0,8.434210968E0,8.674966203E0
9.188709500E0,-1.646276550E0,-1.481768646E0,8.414152679E0,8.700794798E0
9.198727500E0,-1.910626831E0,-1.661395111E0,8.285121002E0,8.663368780E0
9.208745500E0,-2.082918549E0,-1.695374451E0,8.045469360E0,8.481887846E0
9.218763500E0,-1.939516754E0,-1.546583862E0,7.598049774E0,7.992747166E0
9.228781500E0,-1.503772888E0,-1.379381561E0,7.329059143E0,7.607833746E0
9.238799500E0,-1.009351044E0,-1.229992218E0,7.335495758E0,7.506075433E0
9.248817500E0,-6.848258972E-1,-1.065933380E0,7.274871826E0,7.384372727E0
9.258835500E0,-4.135899353E-1,-1.136287079E0,7.129374390E0,7.231195209E0
9.268853500E0,-4.340972900E-3,-1.000669098E0,7.261100464E0,7.329729697E0
9.278871500E0,3.281176758E-1,-6.333329773E-1,7.530240784E0,7.563947259E0
9.288889500E0,4.454736328E-1,-5.243595886E-1,7.936346283E0,7.966115243E0
9.298907500E0,4.719685364E-1,-5.325924683E-1,8.288863220E0,8.319354694E0
9.308925500E0,4.778063965E-1,-5.851332092E-1,8.453371124E0,8.487058571E0
9.318943500E0,3.249742126E-1,-7.373666382E-1,8.469088440E0,8.507336646E0
9.328961500E0,2.704875183E-1,-7.232958984E-1,8.855734406E0,8.889339251E0
9.338979500E0,1.327738953E-1,-6.822811890E-1,9.295519867E0,9.321471243E0
9.348997500E0,-2.395019531E-3,-5.881269836E-1,9.431886292E0,9.450205188E0
9.359015500E0,2.888992310E-2,-4.543052673E-1,9.362131348E0,9.373192160E0
9.369033500E0,2.035766602E-1,-3.281176758E-1,9.183253326E0,9.191368033E0
9.379051500E0,4.661306763E-1,-1.528321838E-1,8.951385498E0,8.964816664E0
9.389069500E0,6.689588928E-1,4.909790039E-2,8.857979736E0,8.883339553E0
9.399087500E0,6.674620056E-1,6.646179199E-2,8.832532654E0,8.857965668E0
9.409105500E0,4.932243347E-1,-8.607101440E-2,8.690627747E0,8.705038144E0
9.419123500E0,2.818638611E-1,-2.616558838E-1,8.727600861E0,8.736070502E0
9.429141500E0,8.128097534E-2,-2.754272461E-1,8.878786469E0,8.883429288E0
9.439159500E0,-1.228944397E-1,-3.757186890E-1,9.035959625E0,9.044602475E0
9.449178500E0,-2.682421875E-1,-6.638694763E-1,9.110205231E0,9.138299399E0
9.459196500E0,-4.411326599E-1,-7.580236816E-1,9.246122589E0,9.287625146E0
9.469214500E0,-6.156697083E-1,-9.933343506E-1,9.362879791E0,9.435532858E0
9.479232500E0,-7.592211914E-1,-1.184486847E0,9.488768005E0,9.592504583E0
9.489250500E0,-8.030799866E-1,-1.167871399E0,9.437574463E0,9.543409915E0
9.499268500E0,-6.667135620E-1,-1.028211823E0,9.215885468E0,9.297003360E0
9.509286500E0,-4.231700134E-1,-7.958949280E-1,8.944499817E0,8.989805258E0
9.519304500E0,-2.341131592E-1,-5.551954651E-1,8.828640747E0,8.849177838E0
9.529322500E0,-1.841171265E-1,-3.213816833E-1,8.867260437E0,8.874992561E0
9.539340500E0,-2.231858826E-1,-1.401086426E-1,8.966054993E0,8.969926672E0
9.549358500E0,-3.867956543E-1,-2.724334717E-2,9.215586090E0,9.223740026E0
9.559376500E0,-6.017486572E-1,1.212478638E-2,9.523795166E0,9.542794288E0
9.569394500E0,-8.472381592E-1,2.080673218E-2,9.777966614E0,9.814625643E0
9.579412500E0,-1.081501007E0,3.966751099E-2,9.992919617E0,1.005135117E1
9.589430500E0,-1.284478912E0,1.856140137E-2,1.018631744E1,1.026700023E1
9.599448500E0,-1.435814209E0,-5.792953491E-2,1.016835480E1,1.026938935E1
9.609466500E0,-1.466650085E0,-8.053253174E-2,9.981842651E0,1.008933747E1
9.619484500E0,-1.409768372E0,3.367996216E-2,9.721533966E0,9.823278671E0
9.629502500E0,-1.334774323E0,2.353106689E-1,9.475745087E0,9.572185673E0
9.639520500E0,-1.278790741E0,4.224215698E-1,9.192534027E0,9.290663463E0
9.649538500E0,-1.184187469E0,5.040019226E-1,8.891510010E0,8.984167638E0
9.659556500E0,-1.041085052E0,5.635780334E-1,8.750054169E0,8.829774982E0
9.669574500E0,-9.358538818E-1,5.616320801E-1,8.689729614E0,8.758005130E0
9.679592500E0,-8.613088989E-1,4.875361633E-1,8.629854126E0,8.686421977E0
9.689610500E0,-8.538244629E-1,4.176315308E-1,8.544681244E0,8.597383897E0
9.699628500E0,-9.225315857E-1,4.200265503E-1,8.487350464E0,8.547666625E0
9.709646500E0,-1.029708710E0,3.362008667E-1,8.431217194E0,8.500514950E0
9.719664500E0,-1.172362061E0,1.814227295E-1,8.436306610E0,8.519308436E0
9.729682500E0,-1.325942688E0,9.071136475E-2,8.554710388E0,8.657333446E0
9.739700500E0,-1.450932770E0,1.396595764E-1,8.793164520E0,8.913161784E0
9.749718500E0,-1.543739777E0,2.851570129E-1,9.104816437E0,9.239162807E0
9.759736500E0,-1.637444916E0,5.072950745E-1,9.464518433E0,9.618507333E0
9.769754500E0,-1.711989899E0,8.190966797E-1,9.724677429E0,9.908137054E0
9.779772500E0,-1.689835968E0,1.020428009E0,9.826615448E0,1.002293321E1
9.789790500E0,-1.665586395E0,9.867480469E-1,9.732610931E0,9.923283997E0
9.799808500E0,-1.392703857E0,9.395960999E-1,9.578431549E0,9.724649907E0
9.809827792E0,-1.221759338E0,8.505313110E-1,9.382489014E0,9.499852603E0
9.819845792E0,-1.209784241E0,7.940986633E-1,9.224417725E0,9.337240114E0
9.829863792E0,-1.036295013E0,8.723858643E-1,9.092541962E0,9.192893112E0
9.839881792E0,-1.050964508E0,9.306147766E-1,8.994795227E0,9.103675710E0
9.849899792E0,-1.195863190E0,9.313632202E-1,8.989256744E0,9.116153961E0
9.859917792E0,-1.387614441E0,8.910969543E-1,9.070837097E0,9.219523483E0
9.869935792E0,-1.519340515E0,8.988807678E-1,9.226513367E0,9.393877322E0
9.879953792E0,-1.594484253E0,9.337582397E-1,9.393266602E0,9.573282714E0
9.889971792E0,-1.604363708E0,1.053060150E0,9.576036530E0,9.766442249E0
9.899989792E0,-1.475631409E0,1.182540894E0,9.752818909E0,9.934453568E0
9.910007792E0,-1.339414673E0,1.215622101E0,9.859846344E0,1.002438720E1
9.920025792E0,-1.279090118E0,1.186432800E0,9.944570160E0,1.009644343E1
9.930043792E0,-1.320104828E0,1.132993927E0,1.005713608E1,1.020648510E1
9.940061792E0,-1.446591797E0,1.047821045E0,1.018287460E1,1.033835054E1
9.950079792E0,-1.689237213E0,8.316705322E-1,1.040531204E1,1.057429510E1
9.960097792E0,-2.024240570E0,5.932164001E-1,1.072878937E1,1.093418387E1
9.970115792E0,-2.084415436E0,5.114863586E-1,1.094972992E1,1.115809085E1
9.980133792E0,-2.040406952E0,4.631369019E-1,1.087428680E1,1.107374687E1
9.990151792E0,-1.829495544E0,5.469625854E-1,1.056772430E1,1.073885557E1
1.000016979E1,-1.541344757E0,5.725593567E-1,1.043899200E1,1.056769237E1
1.001018779E1,-1.344055023E0,5.384303284E-1,1.040965302E1,1.050986522E1
1.002020579E1,-1.279688873E0,5.691165161E-1,1.031025970E1,1.040494846E1
1.003022379E1,-1.276395721E0,7.158114624E-1,1.020487885E1,1.030927371E1
1.004024179E1,-1.261277161E0,8.815168762E-1,9.998607788E0,1.011632590E1
1.005025979E1,-1.256487122E0,1.012943573E0,9.755662994E0,9.888264510E0
1.006027779E1,-1.247505798E0,1.058898010E0,9.494156799E0,9.634134577E0
1.007029579E1,-1.259031830E0,9.816586304E-1,9.258995819E0,9.395627621E0
1.008031379E1,-1.267264709E0,8.617579651E-1,9.121132507E0,9.248980747E0
1.009033179E1,-1.288071442E0,7.990383911E-1,9.064250793E0,9.190116040E0
1.010034979E1,-1.280736694E0,8.325686646E-1,9.095835114E0,9.223213837E0
1.011036779E1,-1.246907043E0,9.508227539E-1,9.261989594E0,9.393790093E0
1.012038579E1,-1.257385254E0,1.068328400E0,9.449100494E0,9.592071903E0
1.013040379E1,-1.334624634E0,1.156644745E0,9.586814117E0,9.748130841E0
1.014042179E1,-1.443598022E0,1.228195953E0,9.609117737E0,9.794262822E0
1.015043979E1,-1.514999542E0,1.220861206E0,9.499395905E0,9.696610142E0
1.016045879E1,-1.482367401E0,1.172362061E0,9.378297729E0,9.566834075E0
1.017047679E1,-1.404978333E0,1.161584473E0,9.333091736E0,9.509460760E0
1.018049479E1,-1.358125763E0,1.177301788E0,9.346563721E0,9.517814795E0
1.019051279E1,-1.371747437E0,1.200952606E0,9.396709442E0,9.571944762E0
1.020053079E1,-1.450483704E0,1.237626343E0,9.430838470E0,9.621659742E0
1.021054879E1,-1.587897949E0,1.255289612E0,9.419013062E0,9.634053091E0
1.022056679E1,-1.702559509E0,1.224902802E0,9.286089478E0,9.520008064E0
1.023058479E1,-1.756896515E0,1.171014862E0,9.156908112E0,9.397176562E0
1.024060279E1,-1.716779938E0,1.149459686E0,9.083560638E0,9.315560359E0
1.025062079E1,-1.682650909E0,1.219663696E0,9.223220215E0,9.454453170E0
1.026063879E1,-1.705852661E0,1.362017670E0,9.516610107E0,9.763754061E0
1.027065679E1,-1.816772003E0,1.574126587E0,9.724378052E0,1.001708857E1
1.028067479E1,-1.921853485E0,1.718875580E0,9.946965179E0,1.027570778E1
1.029069279E1,-2.039359131E0,1.635349274E0,1.020008881E1,1.052972766E1
1.030071079E1,-2.092199249E0,1.393452301E0,1.028915359E1,1.059177458E1
1.031072879E1,-2.082619171E0,1.199605408E0,1.025876678E1,1.053653889E1
1.032074679E1,-2.017055511E0,1.264570312E0,1.010593460E1,1.038256063E1
1.033076479E1,-1.907333679E0,1.537003784E0,9.894723816E0,1.019342248E1
1.034078279E1,-1.864971771E0,1.814676361E0,9.717342682E0,1.005971763E1
1.035080079E1,-1.863474884E0,1.946402435E0,9.457932129E0,9.834302275E0