"Time (s)","Acceleration x (m/s^2)","Acceleration y (m/s^2)","Acceleration z (m/s^2)","Absolute acceleration (m/s^2)"
2.538333338E-4,-8.641529846E-1,8.743318176E-1,8.737031250E0,8.823090817E0
1.027283333E-2,-5.896238708E-1,8.806187439E-1,8.610993347E0,8.675964045E0
2.029083333E-2,-3.143463135E-1,1.450334015E0,8.535849609E0,8.663891211E0
3.030883333E-2,-2.760260010E-1,2.252366180E0,8.619675293E0,8.913368943E0
4.032683333E-2,-8.180488586E-1,2.393223267E0,8.857231293E0,9.211257662E0
5.034583333E-2,-1.469643860E0,1.992656250E0,9.053323517E0,9.385797713E0
6.036383333E-2,-1.631906433E0,1.639091492E0,9.202263794E0,9.488487680E0
7.038183333E-2,-1.714833984E0,1.622925110E0,9.494755554E0,9.783911515E0
8.040083333E-2,-1.615740051E0,1.839375000E0,9.821675720E0,1.012221469E1
9.041883333E-2,-1.513502655E0,1.928888855E0,1.008722351E1,1.038091425E1
1.004368333E-1,-1.499132538E0,1.834285583E0,9.909842377E0,1.018906168E1
1.104548333E-1,-1.476379852E0,1.650467834E0,9.731413422E0,9.980187810E0
1.204738333E-1,-1.429377594E0,1.520837402E0,9.652377777E0,9.875447507E0
1.304918333E-1,-1.325942688E0,1.452130280E0,9.517508240E0,9.718527124E0
1.405098333E-1,-1.251397705E0,1.390159149E0,9.393116913E0,9.577535383E0
1.505278333E-1,-1.257235565E0,1.353784790E0,9.362730103E0,9.543274569E0
1.605468333E-1,-1.290017395E0,1.383572845E0,9.488768005E0,9.675491562E0
1.705648333E-1,-1.394051056E0,1.504521332E0,9.626032562E0,9.842127091E0
1.805828333E-1,-1.446741486E0,1.627266083E0,9.771080933E0,1.001074814E1
1.906018333E-1,-1.453627167E0,1.684147797E0,9.933044128E0,1.017913314E1
2.006198333E-1,-1.523531799E0,1.727707214E0,9.986932068E0,1.024914306E1
2.106378333E-1,-1.610650635E0,1.771116943E0,9.955347748E0,1.023914056E1
2.206558333E-1,-1.648372192E0,1.744472351E0,9.875114594E0,1.016258840E1
2.306748333E-1,-1.606010284E0,1.686692505E0,9.794282684E0,1.006738168E1
2.406928333E-1,-1.520687714E0,1.663341064E0,9.680070190E0,9.938961390E0
2.507108333E-1,-1.405277710E0,1.620380402E0,9.522298279E0,9.760870996E0
2.607298333E-1,-1.306483154E0,1.594334564E0,9.383985901E0,9.607704842E0
2.707478333E-1,-1.243913269E0,1.559307404E0,9.373657379E0,9.583538619E0
2.807658333E-1,-1.271755371E0,1.449735260E0,9.390272827E0,9.586256716E0
2.907838333E-1,-1.311273193E0,1.365909576E0,9.318871307E0,9.509285399E0
3.008028333E-1,-1.335522766E0,1.319655762E0,9.273815002E0,9.461963701E0
3.108208333E-1,-1.370400238E0,1.232985992E0,9.331744537E0,9.512082179E0
3.208388333E-1,-1.396146698E0,1.150507507E0,9.460327148E0,9.631753884E0
3.308577917E-1,-1.356928253E0,1.012943573E0,9.601034546E0,9.749213985E0
3.408757917E-1,-1.400787048E0,8.970845032E-1,9.783205719E0,9.923612200E0
3.508937917E-1,-1.476230164E0,8.240364075E-1,9.941426697E0,1.008415868E1
3.609117917E-1,-1.486109619E0,8.300239563E-1,9.895023193E0,1.004036581E1
3.709307917E-1,-1.497635651E0,9.569599915E-1,9.779912567E0,9.940089275E0
3.809487917E-1,-1.516346741E0,1.141376495E0,9.671537933E0,9.855997856E0
3.909667917E-1,-1.548230438E0,1.356329498E0,9.517807617E0,9.737828764E0
4.009857917E-1,-1.594933319E0,1.567839661E0,9.408235474E0,9.670409930E0
4.110037917E-1,-1.709445190E0,1.722917175E0,9.342522125E0,9.652635190E0
4.210217917E-1,-1.886676636E0,1.768272858E0,9.322912903E0,9.674866543E0
4.310397917E-1,-2.007475433E0,1.774709473E0,9.353599091E0,9.729818461E0
4.410587917E-1,-2.031126251E0,1.752705231E0,9.391170959E0,9.766859345E0
4.510767917E-1,-1.967658234E0,1.722168732E0,9.438921661E0,9.794426282E0
4.610947917E-1,-1.922152863E0,1.677711182E0,9.469907227E0,9.807575099E0
4.711127917E-1,-1.834884338E0,1.606908417E0,9.464219055E0,9.773453715E0
4.811317917E-1,-1.772613831E0,1.498533783E0,9.485025787E0,9.764910521E0
4.911497917E-1,-1.731748810E0,1.369951172E0,9.613758087E0,9.864079517E0
5.011677917E-1,-1.678160248E0,1.240470428E0,9.785750427E0,1.000579333E1
5.111867917E-1,-1.714534607E0,1.112486572E0,9.871522064E0,1.008088305E1
5.212047917E-1,-1.745370483E0,1.060544586E0,9.986033936E0,1.019273990E1
5.312227917E-1,-1.639989624E0,1.069525909E0,1.011671219E1,1.030443192E1
5.412407917E-1,-1.515747986E0,1.032103729E0,1.007659561E1,1.024209496E1
5.512597917E-1,-1.428928528E0,1.010847931E0,9.944869537E0,1.009772650E1
5.612777917E-1,-1.412911835E0,8.955876160E-1,9.825417938E0,9.966806645E0
5.712957917E-1,-1.498533783E0,6.825805664E-1,9.771979065E0,9.909747453E0
5.813147917E-1,-1.644031219E0,4.870870972E-1,9.692644043E0,9.843141827E0
5.913327917E-1,-1.726060638E0,3.540138245E-1,9.580976257E0,9.741648585E0
6.013507917E-1,-1.706002350E0,2.730322266E-1,9.464817810E0,9.621214414E0
6.113687917E-1,-1.641187134E0,2.375559998E-1,9.336235199E0,9.482363405E0
6.213877917E-1,-1.577419739E0,2.484832764E-1,9.233848114E0,9.370909666E0
6.314057917E-1,-1.474433899E0,3.065625000E-1,9.240733795E0,9.362643695E0
6.414237917E-1,-1.478475494E0,3.745211792E-1,9.283993835E0,9.408437566E0
6.514427917E-1,-1.591041412E0,5.222639465E-1,9.238189087E0,9.388733142E0
6.614607917E-1,-1.667532349E0,6.694079590E-1,9.166488190E0,9.340946252E0
6.714787917E-1,-1.727557526E0,7.812254333E-1,9.122479706E0,9.317424760E0
6.814967917E-1,-1.882185974E0,9.819580078E-1,9.186396790E0,9.428507387E0
6.915157917E-1,-1.954335938E0,1.144220581E0,9.323062592E0,9.594173533E0
7.015337917E-1,-1.974244537E0,1.224902802E0,9.373058624E0,9.656720786E0
7.115517917E-1,-2.046244812E0,1.237476654E0,9.400002594E0,9.699407975E0
7.215697917E-1,-2.027982788E0,1.106049957E0,9.387728119E0,9.667755682E0
7.315887917E-1,-1.917512512E0,9.134005737E-1,9.369017029E0,9.606749447E0
7.416067917E-1,-1.767674103E0,7.361691284E-1,9.332492981E0,9.526911460E0
7.516247917E-1,-1.663640442E0,5.333409119E-1,9.281748505E0,9.444734372E0
7.616437917E-1,-1.604663086E0,3.077600098E-1,9.450597382E0,9.590800317E0
7.716617917E-1,-1.578916626E0,1.282832336E-1,9.593699799E0,9.723605819E0
7.816797917E-1,-1.516795807E0,5.313949585E-2,9.570048981E0,9.689650707E0
7.916987917E-1,-1.370400238E0,-3.472778320E-2,9.421557770E0,9.520764341E0
8.017167917E-1,-1.111139374E0,-3.022215271E-1,9.315578156E0,9.386477770E0
8.117347917E-1,-6.632707214E-1,-7.776329041E-1,9.370064850E0,9.425643547E0
8.217527917E-1,-2.456391907E-1,-1.373543701E0,9.529932404E0,9.631540506E0
8.317717917E-1,-8.307723999E-2,-1.845961304E0,9.675130463E0,9.850006316E0
8.417897917E-1,-2.116598511E-1,-2.037413177E0,9.600286102E0,9.816381492E0
8.518077917E-1,-5.646258545E-1,-1.871258698E0,9.090596008E0,9.298351857E0
8.618257917E-1,-1.049766998E0,-1.554966431E0,8.526119843E0,8.730100281E0
8.718447917E-1,-1.626367950E0,-9.627978516E-1,7.878416748E0,8.101944388E0
8.818627917E-1,-1.924996948E0,-5.688171387E-2,7.812254333E0,8.046127426E0
8.918807917E-1,-1.917063446E0,9.436376953E-1,9.006920013E0,9.256899723E0
9.018997917E-1,-2.024539948E0,1.716031494E0,9.566755829E0,9.928058379E0
9.119177917E-1,-2.157313843E0,1.883682861E0,9.428892517E0,9.854251785E0
9.219357917E-1,-2.350112915E0,1.521585846E0,9.192683716E0,9.609562326E0
9.319537917E-1,-2.416874084E0,1.091979218E0,8.935518494E0,9.320793405E0
9.419727917E-1,-2.224374390E0,7.435038757E-1,8.746761017E0,9.055742251E0
9.519907917E-1,-1.935175781E0,5.237608337E-1,8.810229034E0,9.035450534E0
9.620087917E-1,-1.624272308E0,3.965254211E-1,9.111702118E0,9.263833355E0
9.720277917E-1,-1.325493622E0,2.549198914E-1,9.399104462E0,9.495529589E0
9.820457917E-1,-9.508227539E-1,1.643582153E-1,9.605225830E0,9.653571400E0
9.920637917E-1,-5.517526245E-1,6.077362061E-2,9.815987549E0,9.831670049E0
1.002081792E0,-3.143463135E-1,-1.555265808E-1,9.836345215E0,9.842595659E0
1.012100792E0,-3.972738647E-1,-5.376818848E-1,9.639205170E0,9.662360200E0
1.022118792E0,-7.349716187E-1,-1.056353302E0,9.475595398E0,9.562581959E0
1.032136792E0,-1.064286804E0,-1.399739227E0,9.344019012E0,9.508031742E0
1.042155792E0,-1.317410431E0,-1.489253082E0,9.247320099E0,9.458666608E0
1.052173792E0,-1.532812500E0,-1.528172150E0,9.291178894E0,9.539959618E0
1.062191792E0,-1.666634216E0,-1.438059540E0,9.469308472E0,9.721804760E0
1.072209792E0,-1.778002625E0,-1.231938171E0,9.541608124E0,9.783723758E0
1.082228792E0,-1.437311096E0,-7.834707642E-1,9.563762054E0,9.702846709E0
1.092246792E0,-9.437873840E-1,-6.077362061E-2,9.532177734E0,9.578979091E0
1.102264792E0,-9.707313538E-1,3.291654968E-1,9.373058624E0,9.428939350E0
1.112283792E0,-1.013692017E0,2.350112915E-1,8.932824097E0,8.993227905E0
1.122301792E0,-1.038091278E0,-4.460723877E-2,8.300538940E0,8.365319480E0
1.132319792E0,-8.363108826E-1,-3.444337463E-1,7.964038696E0,8.015233175E0
1.142337792E0,-6.376739502E-1,-7.506889343E-1,8.201594696E0,8.260527677E0
1.152356792E0,-6.948550415E-1,-1.384620667E0,8.719667358E0,8.856217972E0
1.162374792E0,-7.656578064E-1,-1.840422821E0,9.109157410E0,9.324705719E0
1.172392792E0,-6.562353516E-1,-2.065255280E0,9.303453369E0,9.552495423E0
1.182411792E0,-4.357438660E-1,-2.150278473E0,9.389823761E0,9.642736152E0
1.192429792E0,-2.194436646E-1,-1.972298584E0,9.233997803E0,9.444831002E0
1.202447792E0,-1.550775146E-1,-1.686093750E0,8.918903046E0,9.078204267E0
1.212465792E0,-3.089575195E-1,-1.344204712E0,8.687633972E0,8.796438205E0
1.222484792E0,-5.920188904E-1,-1.075363770E0,8.574020233E0,8.661450027E0
1.232502792E0,-1.048569489E0,-6.462062073E-1,8.613837433E0,8.701452508E0
1.242520792E0,-1.431922302E0,-1.457968140E-1,9.021589508E0,9.135684728E0
1.252539792E0,-1.671573944E0,3.583547974E-1,9.648785248E0,9.799062933E0
1.262557792E0,-1.928290100E0,6.929090881E-1,1.005848328E1,1.026506267E1
1.272575792E0,-1.697619781E0,8.431965637E-1,9.893077240E0,1.007302689E1
1.282594792E0,-1.161434784E0,1.033750305E0,9.374106445E0,9.502180913E0
1.292612792E0,-9.255253601E-1,1.170266418E0,8.956025848E0,9.079455913E0
1.302630792E0,-8.967851257E-1,1.189276886E0,8.784781952E0,8.910162570E0
1.312648792E0,-9.295669556E-1,9.689350891E-1,8.970695343E0,9.070628692E0
1.322667792E0,-1.085392914E0,5.376818848E-1,9.773176575E0,9.847952069E0
1.332685167E0,-9.987231445E-1,1.779798889E-1,1.061712158E1,1.066547680E1
1.342703167E0,-5.035528564E-1,-6.975494385E-2,1.083102676E1,1.084295034E1
1.352722167E0,2.200424194E-2,-2.764750671E-1,1.059242294E1,1.059605334E1
1.362740167E0,4.132905579E-1,-4.622387695E-1,1.029544052E1,1.031409566E1
1.372758167E0,5.367837524E-1,-6.824308777E-1,1.023481659E1,1.027157823E1
1.382776167E0,4.707710266E-1,-8.343649292E-1,1.030996033E1,1.035437454E1
1.392795167E0,3.710783386E-1,-9.298663330E-1,1.032358200E1,1.037201503E1
1.402813167E0,3.757186890E-1,-1.065035248E0,9.963880005E0,1.002768016E1
1.412831167E0,4.556524658E-1,-1.216370544E0,9.392069092E0,9.481462877E0
1.422850167E0,4.900808716E-1,-1.165177002E0,8.849148102E0,8.938973030E0
1.432868167E0,3.638932800E-1,-1.026864624E0,8.316106567E0,8.387162674E0
1.442886167E0,1.107696533E-1,-1.035845947E0,8.030201111E0,8.097491996E0
1.452904167E0,-2.085163879E-1,-1.109642487E0,8.361911316E0,8.437792744E0
1.462923167E0,-5.523513794E-1,-1.068927155E0,9.296567688E0,9.374106255E0
1.472941167E0,-7.186555481E-1,-9.273216248E-1,1.032433044E1,1.039077429E1
1.482959167E0,-7.165599060E-1,-5.429209900E-1,1.093341385E1,1.097031265E1
1.492978167E0,-7.738906860E-1,-1.568737793E-1,1.151480484E1,1.154184763E1
1.502996167E0,-5.854325867E-1,-2.320175171E-2,1.188678131E1,1.190121169E1
1.513014167E0,-3.894900513E-1,6.735992432E-3,1.178589111E1,1.179232705E1
1.523032167E0,-2.404000854E-1,-5.403762817E-2,1.182960022E1,1.183216606E1
1.533051167E0,-5.373825073E-2,-3.239263916E-1,1.195503937E1,1.195954775E1
1.543069167E0,9.984237671E-2,-7.357200623E-1,1.197749268E1,1.200048263E1
1.553087167E0,1.645079041E-1,-1.154399414E0,1.175176208E1,1.180947132E1
1.563106167E0,2.204914856E-1,-1.446292419E0,1.149833908E1,1.159103877E1
1.573124167E0,2.830613708E-1,-1.585353241E0,1.126721970E1,1.138172695E1
1.583142167E0,4.755610657E-1,-1.523382111E0,1.098176331E1,1.109711569E1
1.593160167E0,5.869294739E-1,-1.420845337E0,1.089075256E1,1.099871716E1
1.603179167E0,5.574407959E-1,-1.491648102E0,1.111887817E1,1.123232862E1
1.613197167E0,5.126838684E-1,-1.652264099E0,1.138921600E1,1.151985515E1
1.623215167E0,6.307882690E-1,-1.853745117E0,1.130673752E1,1.147504153E1
1.633234167E0,8.717871094E-1,-2.192640381E0,1.095886093E1,1.121000970E1
1.643252167E0,1.010249176E0,-2.553839264E0,1.082099762E1,1.116408025E1
1.653270167E0,9.767189026E-1,-2.690056000E0,1.112202164E1,1.148432612E1
1.663288167E0,9.283694458E-1,-2.519111481E0,1.182855240E1,1.212940412E1
1.673307167E0,9.473799133E-1,-2.111958160E0,1.250724106E1,1.271962951E1
1.683325167E0,9.735754395E-1,-1.727108459E0,1.265034348E1,1.280476251E1
1.693343167E0,1.114133148E0,-1.557062073E0,1.209604614E1,1.224663494E1
1.703362167E0,1.248553619E0,-1.517843628E0,1.111992599E1,1.129227566E1
1.713380167E0,1.213077393E0,-1.615590363E0,1.003258713E1,1.023398717E1
1.723398167E0,9.747729492E-1,-1.743873596E0,9.132957916E0,9.348914254E0
1.733416167E0,7.048841858E-1,-1.733096008E0,8.532107391E0,8.734834860E0
1.743435167E0,6.358776855E-1,-1.676813049E0,8.341553650E0,8.532148600E0
1.753453167E0,5.635780334E-1,-1.678309937E0,8.371042328E0,8.556207927E0
1.763471167E0,3.861968994E-1,-1.739382935E0,8.612639923E0,8.795008100E0
1.773490167E0,1.477427673E-1,-1.732646942E0,9.030121765E0,9.196031342E0
1.783508167E0,3.038681030E-2,-1.570683746E0,9.334738312E0,9.466008142E0
1.793526167E0,-3.218307495E-2,-1.401086426E0,9.463620300E0,9.566827484E0
1.803545167E0,-1.986369324E-1,-1.237177277E0,9.409133606E0,9.492199927E0
1.813563167E0,-4.625381470E-1,-1.094374237E0,9.349707184E0,9.424893683E0
1.823581167E0,-7.991880798E-1,-9.618997192E-1,9.488019562E0,9.570081915E0
1.833599167E0,-1.044527893E0,-8.024812317E-1,9.657317505E0,9.746732583E0
1.843618167E0,-8.928932190E-1,-6.661148071E-1,9.759255524E0,9.822628753E0
1.853636167E0,-6.472540283E-1,-4.766088867E-1,9.705068207E0,9.738297731E0
1.863654167E0,-4.517605591E-1,-3.212319946E-1,9.637408905E0,9.653337661E0
1.873673167E0,-4.219725037E-1,-3.077600098E-1,9.852661285E0,9.866494384E0
1.883691167E0,-6.207591248E-1,-9.460327148E-2,1.055874298E1,1.057739784E1
1.893709167E0,-8.646020508E-1,6.406677246E-2,1.123443787E1,1.126784076E1
1.903727167E0,-8.196954346E-1,2.095642090E-3,1.115869537E1,1.118876166E1
1.913746167E0,-6.988966370E-1,-8.128097534E-2,1.063792831E1,1.066117170E1
1.923764167E0,-6.670129395E-1,-3.185375977E-1,9.897567902E0,9.925130872E0
1.933782167E0,-4.144880676E-1,-6.065386963E-1,9.297914886E0,9.326891807E0
1.943801167E0,-5.987548828E-3,-9.090596008E-1,8.847052460E0,8.893636064E0
1.953819167E0,4.165837097E-1,-1.334175568E0,8.768615570E0,8.879312217E0
1.963837167E0,3.890409851E-1,-1.716031494E0,9.427395630E0,9.590198399E0
1.973855167E0,-1.311273193E-1,-2.113455048E0,1.061562469E1,1.082475747E1
1.983874167E0,-5.911207581E-1,-2.161505127E0,1.144864243E1,1.166588795E1
1.993892167E0,-5.370831299E-1,-1.890418854E0,1.163051422E1,1.179538057E1
2.003910167E0,-1.636097717E-1,-1.423240356E0,1.139774826E1,1.148742994E1
2.013929167E0,1.691482544E-1,-1.032702484E0,1.063014450E1,1.068152881E1
2.023947167E0,4.972659302E-1,-1.058149567E0,9.785900116E0,9.855495675E0
2.033965167E0,4.962181091E-1,-1.618434448E0,9.077573090E0,9.234061710E0
2.043983167E0,-4.821473694E-1,-1.970352631E0,8.889564056E0,9.118064745E0
2.054002167E0,-1.741927643E0,-1.061143341E0,9.143286438E0,9.368032023E0
2.064020167E0,-2.683469696E0,-3.920347595E-1,9.795779572E0,1.016425099E1
2.074038167E0,-1.838626556E0,-6.122268677E-2,1.012419662E1,1.028997829E1
2.084057167E0,-1.202449493E0,-2.124082947E-1,9.244476013E0,9.324770176E0
2.094075167E0,-1.203946381E0,-6.432124329E-1,8.164471893E0,8.277790189E0
2.104093167E0,-1.154399414E0,-4.108955383E-1,7.586074677E0,7.684399921E0
2.114112167E0,-1.316362610E0,7.771838379E-1,7.539222107E0,7.692639028E0
2.124130167E0,-1.642534332E0,1.816322937E0,7.953261108E0,8.321737217E0
2.134148167E0,-1.527573395E0,1.961520996E0,8.899892578E0,9.240624059E0
2.144166167E0,-1.073567505E0,1.780846710E0,9.924511871E0,1.014001470E1
2.154185167E0,-6.194119263E-1,1.549727325E0,1.075363770E1,1.088237334E1
2.164203167E0,-3.649411011E-1,1.194066925E0,1.131601822E1,1.138469350E1
2.174221167E0,-1.419049072E-1,7.485932922E-1,1.120899078E1,1.123485662E1
2.184240167E0,-1.243913269E-1,3.005749512E-1,1.075079361E1,1.075571391E1
2.194258167E0,-3.034190369E-1,6.571334839E-2,1.028511200E1,1.028979641E1
2.204276167E0,-4.969665527E-1,2.395019531E-3,9.894873505E0,9.907345919E0
2.214294167E0,-5.167254639E-1,4.790039062E-3,9.590556335E0,9.604467657E0
2.224313167E0,-3.965254211E-1,5.418731689E-2,9.295519867E0,9.304131248E0
2.234331167E0,-4.658312988E-1,6.451583862E-2,9.009614410E0,9.021879678E0
2.244349167E0,-6.830296326E-1,8.128097534E-2,8.875942383E0,8.902555210E0
2.254368167E0,-8.298742676E-1,1.291813660E-1,8.932075653E0,8.971474494E0
2.264386167E0,-5.837860107E-1,2.308200073E-1,9.091194763E0,9.112842927E0
2.274404167E0,-1.451980591E-1,2.824626160E-1,9.293573914E0,9.298999069E0
2.284423167E0,1.486408997E-1,2.053729248E-1,9.426796875E0,9.430205272E0
2.294441167E0,1.411564636E-1,-6.436614990E-2,9.512568512E0,9.513833499E0
2.304459167E0,1.091230774E-1,-4.161346436E-1,9.593101044E0,9.602742500E0
2.314477167E0,1.025367737E-1,-6.629713440E-1,9.641001434E0,9.664313398E0
2.324496167E0,-1.321751404E-1,-6.553372192E-1,9.456135864E0,9.479738531E0
2.334514917E0,-3.787124634E-1,-4.842430115E-1,9.312734070E0,9.333002211E0
2.344532917E0,-5.110372925E-1,-3.394940186E-1,9.408983917E0,9.428965673E0
2.354551917E0,-6.703060913E-1,-2.793191528E-1,9.752818909E0,9.779816262E0
2.364569917E0,-8.735833740E-1,-3.180885315E-1,1.013287857E1,1.017543888E1
2.374587917E0,-9.949809265E-1,-5.346881104E-1,1.033989807E1,1.040141195E1
2.384605917E0,-9.416917419E-1,-8.291258240E-1,1.032403107E1,1.039999281E1
2.394624917E0,-7.120692444E-1,-1.133143616E0,1.014305740E1,1.023096626E1
2.404642917E0,-4.754113770E-1,-1.455124054E0,9.990075531E0,1.010668151E1
2.414660917E0,-2.954855347E-1,-1.785936127E0,1.002854553E1,1.019061358E1
2.424679917E0,-1.688488770E-1,-2.083517303E0,1.010428802E1,1.031824553E1
2.434697917E0,-2.029779053E-1,-2.122136993E0,1.005084915E1,1.027444568E1
2.444715917E0,-3.094065857E-1,-1.843416595E0,9.825717316E0,1.000193171E1
2.454734917E0,-2.121089172E-1,-1.439855804E0,9.397457886E0,9.509489452E0
2.464752917E0,-8.397537231E-2,-1.165326691E0,9.193432159E0,9.267374657E0
2.474770917E0,-1.676513672E-2,-1.132245483E0,9.413175201E0,9.481040464E0
2.484788917E0,-6.256988525E-2,-1.340462494E0,9.589807892E0,9.683241714E0
2.494807917E0,-1.666035461E-1,-1.582658844E0,9.901310120E0,1.002838511E1
2.504825917E0,-1.176553345E-1,-1.760489044E0,1.019679565E1,1.034832383E1
2.514843917E0,-6.990463257E-2,-1.919009399E0,1.002480331E1,1.020706448E1
2.524862917E0,5.209167480E-2,-2.145039368E0,9.790989532E0,1.002334193E1
2.534880917E0,3.249742126E-1,-2.237696686E0,9.742939453E0,1.000188802E1
2.544898917E0,3.914360046E-1,-2.049088898E0,9.580377502E0,9.804877386E0
2.554917917E0,3.845503235E-1,-1.715582428E0,9.470505981E0,9.632319843E0
2.564935917E0,2.507286072E-1,-1.397344208E0,9.290879517E0,9.398716820E0
2.574953917E0,-1.616638184E-2,-1.193019104E0,9.150770874E0,9.228226456E0
2.584971917E0,-1.416055298E-1,-1.189426575E0,9.189989319E0,9.267723096E0
2.594990917E0,-1.273851013E-1,-1.397942963E0,9.340426483E0,9.445318331E0
2.605008917E0,3.742218018E-2,-1.643282776E0,9.496851196E0,9.638047590E0
2.615026917E0,2.210902405E-1,-1.875150604E0,9.655072174E0,9.837961647E0
2.625045917E0,3.870950317E-1,-2.035018158E0,9.764045563E0,9.981369005E0
2.635063917E0,5.469625854E-1,-2.145338745E0,9.862690430E0,1.010813083E1
2.645081917E0,5.894741821E-1,-2.198627930E0,9.823322296E0,1.008360578E1
2.655099917E0,4.736151123E-1,-2.132166138E0,9.751172333E0,9.992787678E0
2.665118917E0,3.366499329E-1,-1.953886871E0,9.745035095E0,9.944682805E0
2.675136917E0,3.665876770E-1,-1.814975739E0,9.826765137E0,9.999691821E0
2.685154917E0,4.263134766E-1,-1.698068848E0,9.782906342E0,9.938331725E0
2.695173917E0,4.580474854E-1,-1.676214294E0,9.703721008E0,9.858078072E0
2.705191917E0,4.667294312E-1,-1.716779938E0,9.675429840E0,9.837637537E0
2.715209917E0,4.799020386E-1,-1.744172974E0,9.573791199E0,9.743198820E0
2.725228917E0,5.111869812E-1,-1.748963013E0,9.463021545E0,9.636854285E0
2.735246917E0,5.004093933E-1,-1.735041962E0,9.355994110E0,9.528662338E0
2.745264917E0,4.608915710E-1,-1.733395386E0,9.322912903E0,9.493881482E0
2.755282917E0,4.323010254E-1,-1.738185425E0,9.418563995E0,9.587362540E0
2.765301917E0,3.863465881E-1,-1.735191650E0,9.566755829E0,9.730517501E0
2.775319917E0,3.263214111E-1,-1.688937836E0,9.685309296E0,9.836880239E0
2.785337917E0,3.155438232E-1,-1.623523865E0,9.740095367E0,9.879516962E0
2.795356917E0,3.049159241E-1,-1.580114136E0,9.716893616E0,9.849251542E0
2.805374917E0,2.653981018E-1,-1.613644409E0,9.677824860E0,9.815018005E0
2.815392917E0,2.101629639E-1,-1.661245422E0,9.661508789E0,9.805542153E0
2.825410917E0,1.875599670E-1,-1.681154022E0,9.643995209E0,9.791225724E0
2.835429917E0,2.110610962E-1,-1.692380676E0,9.591903534E0,9.742346357E0
2.845447917E0,2.598596191E-1,-1.730401611E0,9.507030029E0,9.666717992E0
2.855465917E0,2.969824219E-1,-1.791324921E0,9.467661896E0,9.640210854E0
2.865484917E0,3.209326172E-1,-1.832489319E0,9.508676605E0,9.688959987E0
2.875502917E0,3.101550293E-1,-1.843865662E0,9.589059448E0,9.769651878E0
2.885520917E0,3.135978699E-1,-1.824256439E0,9.656119995E0,9.831933103E0
2.895539917E0,3.146456909E-1,-1.825753326E0,9.689500580E0,9.865029073E0
2.905557917E0,3.348536682E-1,-1.823358307E0,9.691895599E0,9.867603701E0
2.915575917E0,3.972738647E-1,-1.833088074E0,9.676028595E0,9.856143657E0
2.925593917E0,4.598437500E-1,-1.851499786E0,9.662706299E0,9.849233511E0
2.935612917E0,4.998106384E-1,-1.844464417E0,9.614955597E0,9.803021513E0
2.945630917E0,5.501060486E-1,-1.817819824E0,9.584718475E0,9.771075367E0
2.955648917E0,5.851332092E-1,-1.765578461E0,9.533674622E0,9.713423699E0
2.965667917E0,6.397695923E-1,-1.721569977E0,9.504335632E0,9.680160336E0
2.975685917E0,6.979985046E-1,-1.689835968E0,9.500443726E0,9.674770204E0
2.985703917E0,6.951544189E-1,-1.694775696E0,9.514963531E0,9.689687061E0
2.995722917E0,5.983058167E-1,-1.768123169E0,9.579778748E0,9.759938025E0
3.005740917E0,5.188211060E-1,-1.833088074E0,9.664502563E0,9.850482071E0
3.015758917E0,5.557942200E-1,-1.830243988E0,9.709858246E0,9.896466411E0
3.025776917E0,5.804928589E-1,-1.783391418E0,9.702373810E0,9.881979278E0
3.035795917E0,5.510041809E-1,-1.752256165E0,9.682165833E0,9.854863900E0
3.045813917E0,5.444178772E-1,-1.726210327E0,9.682165833E0,9.849899904E0
3.055831917E0,5.774990845E-1,-1.720522156E0,9.703870697E0,9.872122780E0
3.065850917E0,5.613327026E-1,-1.726060638E0,9.748328247E0,9.915860192E0
3.075868917E0,5.186714172E-1,-1.726958771E0,9.767937469E0,9.932975840E0
3.085886917E0,4.948709106E-1,-1.744921417E0,9.719887390E0,9.887661951E0
3.095905917E0,4.553530884E-1,-1.754501495E0,9.627379761E0,9.796533213E0
3.105923917E0,4.331991577E-1,-1.728006592E0,9.552685089E0,9.717379313E0
3.115941917E0,4.508624268E-1,-1.679058380E0,9.490564270E0,9.648488179E0
3.125959917E0,4.481680298E-1,-1.634002075E0,9.450747070E0,9.601428933E0
3.135978917E0,4.679269409E-1,-1.617236938E0,9.448352051E0,9.597174970E0
3.145996917E0,4.751119995E-1,-1.647623749E0,9.541009369E0,9.693877202E0
3.156014917E0,4.787045288E-1,-1.664688263E0,9.672136688E0,9.826015121E0
3.166033917E0,4.921765137E-1,-1.666035461E0,9.729617157E0,9.883489359E0
3.176051917E0,4.629872131E-1,-1.682800598E0,9.756112061E0,9.910998817E0
3.186069917E0,4.291575623E-1,-1.734892273E0,9.735155640E0,9.897842328E0
3.196087917E0,4.257147217E-1,-1.781595154E0,9.717192993E0,9.888334237E0
3.206106917E0,4.367916870E-1,-1.794468384E0,9.715696106E0,9.889674139E0
3.216124917E0,4.608915710E-1,-1.785786438E0,9.692045288E0,9.865961489E0
3.226142917E0,4.752616882E-1,-1.766626282E0,9.649384003E0,9.821275565E0
3.236161917E0,4.734654236E-1,-1.758992157E0,9.580078125E0,9.751723940E0
3.246179917E0,4.915777588E-1,-1.745969238E0,9.530531158E0,9.701602004E0
3.256197917E0,4.861889648E-1,-1.718276825E0,9.517508240E0,9.683584979E0
3.266216917E0,4.740641785E-1,-1.691183167E0,9.567204895E0,9.727088303E0
3.276234917E0,4.535568237E-1,-1.670675812E0,9.617649994E0,9.772208699E0
3.286252917E0,4.484674072E-1,-1.664538574E0,9.617051239E0,9.770337057E0
3.296271917E0,4.391867065E-1,-1.665586395E0,9.615704041E0,9.768767947E0
3.306289917E0,4.076023865E-1,-1.691033478E0,9.628128204E0,9.783996456E0
3.316307917E0,4.035607910E-1,-1.720222778E0,9.650880890E0,9.811296024E0
3.326325917E0,4.093986511E-1,-1.728755035E0,9.664652252E0,9.826581521E0
3.336344792E0,3.884422302E-1,-1.730551300E0,9.623338165E0,9.785414279E0
3.346362792E0,3.936813354E-1,-1.723216553E0,9.568252716E0,9.730155205E0
3.356380792E0,4.128414917E-1,-1.694476318E0,9.543853455E0,9.701898106E0
3.366399792E0,3.727249146E-1,-1.710942078E0,9.576485596E0,9.735261836E0
3.376417792E0,3.195854187E-1,-1.774410095E0,9.607620850E0,9.775328353E0
3.386435792E0,3.411405945E-1,-1.806293793E0,9.602681122E0,9.777042441E0
3.396454792E0,3.721261597E-1,-1.778451691E0,9.532626801E0,9.704243505E0
3.406472792E0,3.823049927E-1,-1.724414063E0,9.499695282E0,9.662503372E0
3.416490792E0,3.941304016E-1,-1.646126862E0,9.504934387E0,9.654473063E0
3.426508792E0,3.912863159E-1,-1.574875031E0,9.533674622E0,9.670795631E0
3.436527792E0,4.005670166E-1,-1.546883240E0,9.609866180E0,9.741808338E0
3.446545792E0,4.766088867E-1,-1.545086975E0,9.731413422E0,9.864829293E0
3.456563792E0,5.535488892E-1,-1.564995575E0,9.867330780E0,1.000599042E1
3.466582792E0,6.062393188E-1,-1.605261841E0,9.972262573E0,1.011881478E1
3.476600792E0,6.487509155E-1,-1.620979156E0,1.001896545E1,1.016996165E1
3.486618792E0,6.914122009E-1,-1.623823242E0,9.970017242E0,1.012502329E1
3.496637792E0,7.496411133E-1,-1.610351257E0,9.808353424E0,9.967897966E0
3.506655792E0,8.336164856E-1,-1.603764954E0,9.606872406E0,9.775427147E0
3.516673792E0,8.666976929E-1,-1.602717133E0,9.447004852E0,9.621110527E0
3.526691792E0,8.875044250E-1,-1.600621490E0,9.353599091E0,9.530974200E0
3.536710792E0,9.089099121E-1,-1.627715149E0,9.325158234E0,9.509687162E0
3.546728792E0,9.300160217E-1,-1.678309937E0,9.352401581E0,9.547202175E0
3.556746792E0,9.125024414E-1,-1.693727875E0,9.418414307E0,9.612902937E0
3.566765792E0,8.595126343E-1,-1.681752777E0,9.532028046E0,9.717335696E0
3.576783792E0,8.167016602E-1,-1.680704956E0,9.650282135E0,9.829532849E0
3.586801792E0,7.774832153E-1,-1.708846436E0,9.759554901E0,9.938488223E0
3.596820792E0,7.370672607E-1,-1.726210327E0,9.855655060E0,1.003279656E1
3.606838792E0,6.963519287E-1,-1.711091766E0,9.900561676E0,1.007143796E1
3.616856792E0,7.096742249E-1,-1.669328613E0,9.865384827E0,1.003075836E1
3.626874792E0,7.562274170E-1,-1.637594604E0,9.757908325E0,9.923223815E0
3.636893792E0,7.391629028E-1,-1.626966705E0,9.633367310E0,9.797711375E0
3.646911792E0,7.129673767E-1,-1.608105927E0,9.561666412E0,9.722128971E0
3.656929792E0,7.285350037E-1,-1.569935303E0,9.520951080E0,9.676981429E0
3.666948792E0,7.469467163E-1,-1.531465302E0,9.453591156E0,9.605920107E0
3.676966792E0,7.402107239E-1,-1.495989075E0,9.420959015E0,9.567672862E0
3.686984792E0,7.566764832E-1,-1.492695923E0,9.409133606E0,9.556803631E0
3.697003792E0,7.262896729E-1,-1.534010010E0,9.469907227E0,9.620801748E0
3.707021792E0,7.041357422E-1,-1.595532074E0,9.585167542E0,9.742533887E0
3.717039792E0,6.924600220E-1,-1.636846161E0,9.685758362E0,9.847470806E0
3.727057792E0,6.849755859E-1,-1.671723633E0,9.734257507E0,9.900485881E0
3.737076792E0,6.930587769E-1,-1.698068848E0,9.763446808E0,9.934216720E0
3.747094792E0,6.951544189E-1,-1.732796631E0,9.785900116E0,9.962412605E0
3.757112792E0,7.149133301E-1,-1.744921417E0,9.757908325E0,9.938441865E0
3.767131792E0,7.373666382E-1,-1.709445190E0,9.667646027E0,9.845267498E0
3.777149792E0,7.749385071E-1,-1.665287018E0,9.545050964E0,9.720170186E0
3.787167792E0,7.852670288E-1,-1.638193359E0,9.467661896E0,9.640380883E0
3.797186792E0,7.728428650E-1,-1.628613281E0,9.474996643E0,9.644958719E0
3.807204792E0,7.914042664E-1,-1.605411530E0,9.510023804E0,9.676994349E0
3.817222792E0,7.999365234E-1,-1.557211761E0,9.523046722E0,9.682624943E0
3.827241792E0,7.409591675E-1,-1.492695923E0,9.555978241E0,9.700200088E0
3.837259792E0,6.641688538E-1,-1.484762421E0,9.649982758E0,9.786102745E0
3.847277792E0,5.993536377E-1,-1.558409271E0,9.770033112E0,9.911680546E0
3.857295792E0,6.081852722E-1,-1.615440674E0,9.825118561E0,9.975594851E0
3.867314792E0,6.433621216E-1,-1.609902191E0,9.768386536E0,9.921042052E0
3.877332792E0,6.638694763E-1,-1.571581879E0,9.662406921E0,9.811865256E0
3.887350792E0,6.716532898E-1,-1.557660828E0,9.582922211E0,9.731897220E0
3.897369792E0,6.683601379E-1,-1.563648376E0,9.539213104E0,9.689596904E0
3.907387792E0,6.469546509E-1,-1.610051880E0,9.549841003E0,9.706198049E0
3.917405792E0,6.453080750E-1,-1.665736084E0,9.598489838E0,9.763304071E0
3.927424792E0,6.518943787E-1,-1.675016785E0,9.646988983E0,9.813003819E0
3.937442792E0,6.352789307E-1,-1.629361725E0,9.694440308E0,9.850917309E0
3.947460792E0,6.521937561E-1,-1.553319855E0,9.687105560E0,9.832505957E0
3.957479792E0,6.628216553E-1,-1.531914368E0,9.656868439E0,9.800061338E0
3.967497792E0,6.580316162E-1,-1.564546509E0,9.636810150E0,9.785137774E0
3.977515792E0,6.785389709E-1,-1.601669312E0,9.656718750E0,9.812134158E0
3.987533792E0,7.077282715E-1,-1.628313904E0,9.684560852E0,9.845963862E0
3.997552792E0,7.165599060E-1,-1.636546783E0,9.663454742E0,9.827212272E0
4.007570792E0,7.791297913E-1,-1.639839935E0,9.613458710E0,9.783389321E0
4.017588792E0,7.911048889E-1,-1.669627991E0,9.578880615E0,9.755432251E0
4.027607792E0,7.662565613E-1,-1.681004333E0,9.595795441E0,9.772011811E0
4.037625792E0,7.896080017E-1,-1.655557251E0,9.602232056E0,9.775848355E0
4.047643792E0,7.887098694E-1,-1.600471802E0,9.549242249E0,9.714504659E0
4.057662792E0,7.644602966E-1,-1.572480011E0,9.501641235E0,9.661173795E0
4.067680792E0,7.548802185E-1,-1.573827209E0,9.519753571E0,9.678454643E0
4.077698792E0,7.408094788E-1,-1.621727600E0,9.576186218E0,9.740746459E0
4.087716792E0,7.140151978E-1,-1.657353516E0,9.665101318E0,9.832132112E0
4.097735792E0,7.207511902E-1,-1.664388885E0,9.762099609E0,9.929162171E0
4.107753792E0,7.173083496E-1,-1.626068573E0,9.789941711E0,9.949954220E0
4.117771792E0,7.393125916E-1,-1.604513397E0,9.755213928E0,9.913891523E0
4.127790792E0,7.533833313E-1,-1.595083008E0,9.652976532E0,9.812840169E0
4.137808792E0,7.262896729E-1,-1.620081024E0,9.574389954E0,9.737612757E0
4.147826792E0,7.354206848E-1,-1.624272308E0,9.570048981E0,9.734728636E0
4.157845792E0,7.655081177E-1,-1.603615265E0,9.567803650E0,9.731415687E0
4.167863792E0,7.711962891E-1,-1.603914642E0,9.565408630E0,9.729559505E0
4.177881792E0,7.397616577E-1,-1.620979156E0,9.598789215E0,9.762764728E0
4.187900792E0,7.087760925E-1,-1.607058105E0,9.668394470E0,9.826639860E0
4.197918792E0,6.947053528E-1,-1.563798065E0,9.702822876E0,9.852555591E0
4.207936792E0,7.020401001E-1,-1.547332306E0,9.708061981E0,9.855636205E0
4.217954792E0,7.012916565E-1,-1.579515381E0,9.674382019E0,9.827530019E0
4.227973792E0,7.084767151E-1,-1.625469818E0,9.618997192E0,9.781063254E0
4.237991792E0,7.333250427E-1,-1.622625732E0,9.557325439E0,9.721787358E0
4.248009792E0,7.578739929E-1,-1.611698456E0,9.524094543E0,9.689185816E0
4.258028792E0,7.611671448E-1,-1.621128845E0,9.526788940E0,9.693665028E0
4.268046792E0,7.402107239E-1,-1.654958496E0,9.569899292E0,9.740111498E0
4.278064792E0,7.557783508E-1,-1.657952271E0,9.613309021E0,9.784463040E0
4.288083792E0,7.605683899E-1,-1.657503204E0,9.630223846E0,9.801377071E0
4.298101792E0,7.306306458E-1,-1.691183167E0,9.677675171E0,9.851462752E0
4.308119792E0,7.448510742E-1,-1.716779938E0,9.741891632E0,9.920009529E0
4.318137792E0,7.352709961E-1,-1.737436981E0,9.741442566E0,9.922449998E0
4.328156667E0,7.493417358E-1,-1.726659393E0,9.678423615E0,9.859754021E0
4.338174667E0,7.738906860E-1,-1.696721649E0,9.573342133E0,9.753289227E0
4.348192667E0,7.770341492E-1,-1.658251648E0,9.491013336E0,9.666070284E0
4.358211667E0,7.930508423E-1,-1.628164215E0,9.468110962E0,9.639760035E0
4.368229667E0,7.930508423E-1,-1.634002075E0,9.486073608E0,9.658389355E0
4.378247667E0,7.203021240E-1,-1.653611298E0,9.562863922E0,9.731476346E0
4.388266667E0,6.867718506E-1,-1.658700714E0,9.647138672E0,9.812758439E0
4.398284667E0,7.072792053E-1,-1.638792114E0,9.694889374E0,9.857827521E0
4.408302667E0,7.414082336E-1,-1.626817017E0,9.702074432E0,9.865417785E0
4.418321667E0,7.415579224E-1,-1.631307678E0,9.723779297E0,9.887515194E0
4.428339667E0,7.539820862E-1,-1.613494720E0,9.720486145E0,9.882292502E0
4.438357667E0,7.897576904E-1,-1.577868805E0,9.678872681E0,9.838392325E0
4.448375667E0,8.201445007E-1,-1.526824951E0,9.606123962E0,9.761221697E0
4.458394667E0,8.276289368E-1,-1.508862305E0,9.555529175E0,9.709262223E0
4.468412667E0,8.204438782E-1,-1.496887207E0,9.545949097E0,9.697367871E0
4.478430667E0,8.087681580E-1,-1.498384094E0,9.580078125E0,9.730218790E0
4.488449667E0,8.153544617E-1,-1.503623199E0,9.652078400E0,9.802464132E0
4.498467667E0,8.289761353E-1,-1.505569153E0,9.703122253E0,9.854162642E0
4.508485667E0,8.375083923E-1,-1.482966156E0,9.720935211E0,9.869001485E0
4.518504667E0,8.372090149E-1,-1.475332031E0,9.705517273E0,9.852643761E0
4.528522667E0,7.773335266E-1,-1.473086700E0,9.686656494E0,9.828812028E0
4.538540667E0,7.280859375E-1,-1.466500397E0,9.668843536E0,9.806491109E0
4.548558667E0,7.156617737E-1,-1.453327789E0,9.650880890E0,9.785899825E0
4.558577667E0,7.098239136E-1,-1.436113586E0,9.613608398E0,9.746165331E0
4.568595667E0,7.256909180E-1,-1.449136505E0,9.588311005E0,9.724316523E0
4.578613667E0,7.524851990E-1,-1.484912109E0,9.576784973E0,9.720391369E0
4.588632667E0,7.813751221E-1,-1.560953979E0,9.564510498E0,9.722498932E0
4.598650667E0,8.193960571E-1,-1.637295227E0,9.568701782E0,9.742289226E0
4.608668667E0,8.256829834E-1,-1.724414063E0,9.557924194E0,9.747269933E0
4.618687667E0,8.029302979E-1,-1.784888306E0,9.556876373E0,9.755224720E0
4.628705667E0,7.759863281E-1,-1.832938385E0,9.543853455E0,9.749202873E0
4.638723667E0,7.571255493E-1,-1.858684845E0,9.553732910E0,9.762262083E0
4.648742667E0,7.514373779E-1,-1.873504028E0,9.593101044E0,9.803176175E0
4.658760667E0,7.532336426E-1,-1.869612122E0,9.650431824E0,9.858683725E0
4.668778667E0,7.482939148E-1,-1.843117218E0,9.700727234E0,9.902582175E0
4.678796667E0,7.235952759E-1,-1.824855194E0,9.705966339E0,9.902498128E0
4.688815667E0,7.213499451E-1,-1.799258423E0,9.674082642E0,9.866384929E0
4.698833667E0,7.238946533E-1,-1.762135620E0,9.623787231E0,9.810526290E0
4.708851667E0,7.183561707E-1,-1.730251923E0,9.570797424E0,9.752434088E0
4.718870667E0,6.756948853E-1,-1.707199860E0,9.520202637E0,9.695635780E0
4.728888667E0,6.611750793E-1,-1.719773712E0,9.475595398E0,9.653065951E0
4.738906667E0,6.741979980E-1,-1.760039978E0,9.485025787E0,9.670470405E0
4.748925667E0,6.536906433E-1,-1.782942352E0,9.573940887E0,9.760457930E0
4.758943667E0,6.240522766E-1,-1.747765503E0,9.677525482E0,9.853863453E0
4.768961667E0,6.228547668E-1,-1.659449158E0,9.728719025E0,9.888867146E0
4.778980667E0,6.481521606E-1,-1.603315887E0,9.705217896E0,9.858091979E0
4.788998667E0,6.336323547E-1,-1.598076782E0,9.680968323E0,9.832420202E0
4.799016667E0,6.096821594E-1,-1.595083008E0,9.659263458E0,9.809045453E0
4.809034667E0,6.456074524E-1,-1.552421722E0,9.651779022E0,9.797125113E0
4.819053667E0,6.962022400E-1,-1.541644135E0,9.612710266E0,9.760407925E0
4.829071667E0,6.997947693E-1,-1.540147247E0,9.617949371E0,9.765588378E0
4.839089667E0,7.146139526E-1,-1.546583862E0,9.631870422E0,9.781386537E0
4.849108667E0,7.888595581E-1,-1.556313629E0,9.568103027E0,9.725893638E0
4.859126667E0,8.207432556E-1,-1.589544525E0,9.471254425E0,9.638720438E0
4.869144667E0,7.530839539E-1,-1.629511414E0,9.423204346E0,9.592665064E0
4.879163667E0,6.617738342E-1,-1.654509430E0,9.527836761E0,9.693039741E0
4.889181667E0,5.601351929E-1,-1.634600830E0,9.637259216E0,9.790936447E0
4.899199667E0,5.001100159E-1,-1.607806549E0,9.745184784E0,9.889579283E0
4.909218667E0,4.272116089E-1,-1.602567444E0,9.770631866E0,9.910397532E0
4.919236667E0,3.373983765E-1,-1.640438690E0,9.807904358E0,9.949867570E0
4.929254667E0,2.498304749E-1,-1.613794098E0,9.790241089E0,9.925500856E0
4.939272667E0,2.824626160E-1,-1.587448883E0,9.754764862E0,9.887123778E0
4.949291667E0,3.508703613E-1,-1.572779388E0,9.747579803E0,9.879881428E0
4.959309667E0,3.923341370E-1,-1.552421722E0,9.676327972E0,9.807918347E0
4.969327667E0,4.490661621E-1,-1.532962189E0,9.582473145E0,9.714701491E0
4.979346667E0,4.709207153E-1,-1.507664795E0,9.490414581E0,9.620955689E0
4.989364667E0,4.590953064E-1,-1.545536041E0,9.471254425E0,9.607502825E0
4.999382667E0,4.302053833E-1,-1.600771179E0,9.520352325E0,9.663573534E0
5.009401667E0,4.138893127E-1,-1.631607056E0,9.628427582E0,9.774459762E0
5.019419667E0,4.019142151E-1,-1.644480286E0,9.724078674E0,9.870337203E0
5.029437667E0,3.972738647E-1,-1.664837952E0,9.765991516E0,9.914842521E0
5.039456667E0,4.008663940E-1,-1.681303711E0,9.754914551E0,9.906857924E0
5.049474667E0,4.146377563E-1,-1.677112427E0,9.716145172E0,9.868541309E0
5.059492667E0,4.311035156E-1,-1.657054138E0,9.680519257E0,9.830774727E0
5.069510667E0,4.342469788E-1,-1.628762970E0,9.648485870E0,9.794627039E0
5.079529667E0,4.459226990E-1,-1.598825226E0,9.609117737E0,9.751422093E0
5.089547667E0,4.495152283E-1,-1.615740051E0,9.565558319E0,9.711466718E0
5.099565667E0,4.267625427E-1,-1.651216278E0,9.527537384E0,9.678977739E0
5.109584667E0,4.125421143E-1,-1.685195618E0,9.549990692E0,9.706307098E0
5.119602667E0,4.284091187E-1,-1.679058380E0,9.613907776E0,9.768827675E0
5.129620667E0,4.448748779E-1,-1.631457367E0,9.701325989E0,9.847603401E0
5.139639667E0,4.526586914E-1,-1.582808533E0,9.718240814E0,9.856692511E0
5.149657667E0,4.489164734E-1,-1.565594330E0,9.666149139E0,9.802400257E0
5.159675667E0,4.698728943E-1,-1.573527832E0,9.598340149E0,9.737807966E0
5.169694667E0,4.917274475E-1,-1.618733826E0,9.608668671E0,9.756464970E0
5.179712667E0,5.270539856E-1,-1.684447174E0,9.642797699E0,9.802994219E0
5.189730667E0,5.465135193E-1,-1.744172974E0,9.667496338E0,9.838765260E0
5.199748667E0,5.453160095E-1,-1.749561768E0,9.664502563E0,9.836714173E0
5.209767667E0,5.782475281E-1,-1.712139587E0,9.635313263E0,9.803318512E0
5.219785667E0,5.766009521E-1,-1.688039703E0,9.598489838E0,9.762835339E0
5.229803667E0,5.679190063E-1,-1.679208069E0,9.612560577E0,9.774640279E0
5.239822667E0,5.463638306E-1,-1.641935577E0,9.613758087E0,9.768255240E0
5.249840667E0,4.930746460E-1,-1.613494720E0,9.643396454E0,9.789871449E0
5.259858667E0,4.595443726E-1,-1.575324097E0,9.643546143E0,9.782167921E0
5.269877667E0,4.053570557E-1,-1.560953979E0,9.629625092E0,9.763737557E0
5.279895667E0,3.784130859E-1,-1.537901917E0,9.613159332E0,9.742749669E0
5.289913667E0,3.775149536E-1,-1.531165924E0,9.605225830E0,9.733825038E0
5.299932667E0,4.004173279E-1,-1.552571411E0,9.599837036E0,9.732814760E0
5.309950667E0,4.197271729E-1,-1.614542542E0,9.586963806E0,9.731022225E0
5.319968667E0,4.087998962E-1,-1.654808807E0,9.581874390E0,9.732308378E0
5.329987042E0,4.222718811E-1,-1.698966980E0,9.614506531E0,9.772591170E0
5.340006042E0,4.581971741E-1,-1.737886047E0,9.664053497E0,9.829756994E0
5.350024042E0,5.146298218E-1,-1.713187408E0,9.738299103E0,9.901228427E0
5.360042042E0,6.038442993E-1,-1.654060364E0,9.785600739E0,9.942762465E0
5.370061042E0,6.634204102E-1,-1.632804565E0,9.758507080E0,9.916382295E0
5.380079042E0,7.325765991E-1,-1.661544800E0,9.681118011E0,9.849946474E0
5.390097042E0,7.673043823E-1,-1.706900482E0,9.601184235E0,9.781871190E0
5.400116042E0,7.229965210E-1,-1.765428772E0,9.526489563E0,9.715629990E0
5.410134042E0,6.399192810E-1,-1.750908966E0,9.453740845E0,9.635787194E0
5.420152042E0,5.933660889E-1,-1.687291260E0,9.415719910E0,9.584091847E0
5.430171042E0,5.848338318E-1,-1.632954254E0,9.406588898E0,9.565170406E0
5.440189042E0,5.641767883E-1,-1.641636200E0,9.510921936E0,9.668035009E0
5.450207042E0,5.248086548E-1,-1.670825500E0,9.751022644E0,9.907044190E0
5.460226042E0,5.054988098E-1,-1.718725891E0,9.991123352E0,1.015047258E1
5.470244042E0,4.924758911E-1,-1.803599396E0,1.011746063E1,1.028875663E1
5.480262042E0,4.685256958E-1,-1.832639008E0,1.017628830E1,1.035060025E1
5.490280042E0,3.942800903E-1,-1.765428772E0,1.018766464E1,1.034701437E1
5.500299042E0,4.209246826E-1,-1.636397095E0,1.010084518E1,1.024119361E1
5.510317042E0,6.110293579E-1,-1.526525574E0,9.909692688E0,1.004518026E1
5.520335042E0,8.626560974E-1,-1.438807983E0,9.682016144E0,9.826280098E0
5.530354042E0,9.851014709E-1,-1.333576813E0,9.478888550E0,9.622794821E0
5.540372042E0,9.791139221E-1,-1.217867432E0,9.233848114E0,9.365138341E0
5.550390042E0,9.144483948E-1,-1.084195404E0,8.950337677E0,9.062021853E0
5.560409042E0,8.051756287E-1,-1.007105713E0,8.787476349E0,8.881571386E0
5.570427042E0,6.819818115E-1,-9.907896423E-1,8.848100281E0,8.929481613E0
5.580445042E0,5.697152710E-1,-9.636959839E-1,9.045839081E0,9.114849978E0
5.590464042E0,5.361849976E-1,-8.571176147E-1,9.287586365E0,9.342451790E0
5.600482042E0,5.056484985E-1,-6.845265198E-1,9.452842712E0,9.491074349E0
5.610500042E0,5.248086548E-1,-5.707630920E-1,9.468859406E0,9.500552251E0
5.620518042E0,3.912863159E-1,-5.957611084E-1,9.616153107E0,9.642532699E0
5.630537042E0,-6.150709534E-1,-1.175954590E0,1.146810196E1,1.154463269E1
5.640555042E0,-4.468208313E-1,-7.015910339E-1,1.144400208E1,1.147419114E1
5.650573042E0,-5.448669434E-2,-2.516267395E-1,1.025891647E1,1.026214656E1
5.660592042E0,2.127076721E-1,1.107696533E-2,9.048832855E0,9.051339309E0
5.670610042E0,-2.130070496E-1,-3.948788452E-1,8.679850159E0,8.691438321E0
5.680628042E0,-7.896080017E-1,-5.038522339E-1,8.238268433E0,8.291345768E0
5.690647042E0,-1.114582214E0,-2.612068176E-1,9.145681458E0,9.217050062E0
5.700665042E0,-1.205742645E0,-2.561174011E-1,1.044887146E1,1.052132721E1
5.710683042E0,-1.223405914E0,-2.634521484E-1,1.059601547E1,1.066966133E1
5.720702042E0,-1.178499298E0,-4.921765137E-1,1.019799316E1,1.027765357E1
5.730720042E0,-8.472381592E-1,-9.692344666E-1,9.534722443E0,9.621234848E0
5.740738042E0,-5.463638306E-1,-1.183439026E0,9.146429901E0,9.238843071E0
5.750757042E0,-4.327500916E-1,-1.006207581E0,9.416917419E0,9.480404001E0
5.760775042E0,-5.342390442E-1,-5.493576050E-1,9.845027161E0,9.874804551E0
5.770793042E0,-8.616082764E-1,-1.860630798E-1,1.023481659E1,1.027270456E1
5.780811042E0,-1.129700775E0,4.535568237E-2,1.044647644E1,1.050748072E1
5.790830042E0,-1.230291595E0,2.959346008E-1,1.056937088E1,1.064484831E1
5.800848042E0,-1.190025330E0,4.129911804E-1,1.059272232E1,1.066735619E1
5.810866042E0,-1.173559570E0,3.950285339E-1,1.027837601E1,1.035269544E1
5.820885042E0,-1.161734161E0,2.912942505E-1,9.970316620E0,1.004199642E1
5.830903042E0,-1.276096344E0,1.318757629E-1,9.641300812E0,9.726278550E0
5.840921042E0,-1.494492188E0,-4.146377563E-2,9.382938080E0,9.501302708E0
5.850940042E0,-1.731898499E0,-8.128097534E-2,9.313632202E0,9.473638361E0
5.860958042E0,-1.646276550E0,1.046324158E-1,9.360634460E0,9.504875166E0
5.870976042E0,-1.499731293E0,2.565664673E-1,9.479337616E0,9.600669869E0
5.880995042E0,-1.531914368E0,3.719764709E-1,9.501491547E0,9.631379431E0
5.891013042E0,-1.657652893E0,4.564009094E-1,9.591005402E0,9.743895500E0
5.901031042E0,-1.538350983E0,5.840853882E-1,1.015338593E1,1.028586045E1
5.911049042E0,-1.458566895E0,7.568261719E-1,1.066277664E1,1.078865186E1
5.921068042E0,-1.409468994E0,1.004261627E0,1.093895233E1,1.107500891E1
5.931086042E0,-1.659898224E0,1.280287628E0,1.070648575E1,1.090977706E1
5.941104042E0,-2.075134735E0,1.410965881E0,1.016446289E1,1.046963776E1
5.951123042E0,-1.968256989E0,1.330133972E0,1.009141479E1,1.036725347E1
5.961141042E0,-1.958527222E0,1.657952271E0,1.031669632E1,1.063103276E1
5.971159042E0,-1.813478851E0,2.112706604E0,1.051817734E1,1.088045446E1
5.981178042E0,-1.647024994E0,2.499801636E0,1.057925034E1,1.099464584E1
5.991196042E0,-1.557511139E0,2.631976776E0,1.059212357E1,1.102480042E1
6.001214042E0,-1.465602264E0,2.732268219E0,1.038914566E1,1.084193835E1
6.011233042E0,-1.625320129E0,2.785407715E0,1.028990204E1,1.078342458E1
6.021251042E0,-1.721869354E0,2.558778992E0,1.064286804E1,1.108074114E1
6.031269042E0,-1.277144165E0,2.100432129E0,1.086560486E1,1.114021011E1
6.041288042E0,-1.082249451E0,1.719923401E0,1.076456497E1,1.095469121E1
6.051306042E0,-1.350940704E0,1.703307953E0,1.035726196E1,1.058296623E1
6.061324042E0,-1.641037445E0,1.724713440E0,1.018946091E1,1.046387853E1
6.071342042E0,-1.904938660E0,1.685944061E0,1.038285873E1,1.068994641E1
6.081361042E0,-2.296224976E0,1.461860046E0,1.069600754E1,1.103694981E1
6.091379042E0,-2.996917877E0,1.276695099E0,1.050769913E1,1.100105486E1
6.101397042E0,-3.510799255E0,1.399140472E0,1.042836411E1,1.109207300E1
6.111416042E0,-3.879033508E0,1.329984283E0,1.048913773E1,1.126222755E1
6.121434042E0,-4.169279938E0,1.060694275E0,1.055036041E1,1.139377340E1
6.131452042E0,-4.026925964E0,7.316784668E-1,1.152692963E1,1.223199055E1
6.141471042E0,-4.071982269E0,2.487826538E-1,1.039154068E1,1.116364860E1
6.151489042E0,-3.575764160E0,3.129991150E-1,1.016311569E1,1.077835694E1
6.161507042E0,-2.876268768E0,4.776567078E-1,9.952054596E0,1.037036492E1
6.171526042E0,-2.282902679E0,8.110134888E-1,9.364825745E0,9.673125077E0
6.181544042E0,-1.721270599E0,1.183588715E0,8.980125732E0,9.219886816E0
6.191562042E0,-1.130149841E0,1.468745728E0,8.998387756E0,9.187243052E0
6.201581042E0,-6.484515381E-1,1.639989624E0,9.059311066E0,9.229364677E0
6.211599042E0,-3.357518005E-1,1.662592621E0,9.159752197E0,9.315471207E0
6.221617042E0,-1.336720276E-1,1.540596313E0,8.465495911E0,8.605575299E0
6.231635042E0,1.095721436E-1,1.391656036E0,8.162825317E0,8.281330191E0
6.241654042E0,2.362088013E-1,1.017583923E0,8.349487152E0,8.414583017E0
6.251672042E0,1.579216003E-1,5.254074097E-1,8.634344788E0,8.651757168E0
6.261690042E0,7.738906860E-2,3.682342529E-2,8.959169312E0,8.959579219E0
6.271709042E0,-2.043251038E-1,-4.430786133E-1,9.402696991E0,9.415348008E0
6.281727042E0,-5.210664368E-1,-7.122189331E-1,1.011596375E1,1.015438273E1
6.291745042E0,-9.949809265E-1,-7.744894409E-1,1.077624069E1,1.084975504E1
6.301764042E0,-1.005908203E0,-6.587800598E-1,1.111229187E1,1.117715854E1
6.311782042E0,-8.657995605E-1,-5.661227417E-1,1.098101486E1,1.102963242E1
6.321800042E0,-5.230123901E-1,-5.074447632E-1,1.081396225E1,1.083848798E1
6.331818958E0,-4.870870972E-1,-5.903723145E-1,1.087713089E1,1.090402539E1
6.341836958E0,-7.882608032E-1,-6.622229004E-1,1.119387222E1,1.124111514E1
6.351854958E0,-1.075363770E0,-7.367678833E-1,1.148456772E1,1.155830999E1
6.361873958E0,-1.125210114E0,-8.208929443E-1,1.135957764E1,1.144464797E1
6.371891958E0,-1.084345093E0,-9.303153992E-1,1.085153412E1,1.094518541E1
6.381909958E0,-1.088686066E0,-9.395960999E-1,1.021760239E1,1.031830784E1
6.391927958E0,-1.193019104E0,-6.911128235E-1,9.776619415E0,9.873359039E0
6.401946958E0,-1.349144440E0,-4.433779907E-1,9.828411713E0,9.930480933E0
6.411964958E0,-1.549877014E0,-3.668870544E-1,1.006851242E1,1.019370724E1
6.421982958E0,-1.745669861E0,-3.191363525E-1,1.022553589E1,1.037838116E1
6.432001958E0,-1.821262665E0,-1.727407837E-1,1.035771103E1,1.051803284E1
6.442019958E0,-1.830693054E0,-4.790039063E-2,1.053599030E1,1.069396199E1
6.452037958E0,-1.934427338E0,-1.886077881E-2,1.076770844E1,1.094010557E1
6.462056958E0,-2.069895630E0,-4.595443726E-2,1.114088242E1,1.133163010E1
6.472074958E0,-2.163301392E0,-2.013313293E-1,1.158785294E1,1.178977281E1
6.482092958E0,-2.440674591E0,-2.454895020E-1,1.204859482E1,1.229576328E1
6.492111958E0,-2.663261719E0,-2.179467773E-1,1.206506058E1,1.235743301E1
6.502129958E0,-2.547552338E0,-1.724414062E-1,1.138038437E1,1.166331459E1
6.512147958E0,-2.281106415E0,-1.228944397E-1,1.039094193E1,1.063908942E1
6.522166958E0,-1.969005432E0,-1.122665405E-2,9.535770264E0,9.736941150E0
6.532184958E0,-1.654210052E0,9.385482788E-2,8.983718262E0,9.135229249E0
6.542202958E0,-1.489851837E0,4.954696655E-2,8.724906464E0,8.851333583E0
6.552220958E0,-1.727557526E0,-1.833686829E-1,8.650361481E0,8.823085221E0
6.562239958E0,-1.845811615E0,-5.295986938E-1,8.910071411E0,9.114651274E0
6.572257958E0,-1.864522705E0,-6.408174133E-1,9.457932129E0,9.661240709E0
6.582275958E0,-1.854643250E0,-4.671784973E-1,1.017509079E1,1.035328112E1
6.592294958E0,-1.749262390E0,-1.932481384E-1,1.076441528E1,1.090733240E1
6.602312958E0,-1.684896240E0,2.228865051E-1,1.097697327E1,1.110776736E1
6.612330958E0,-1.644180908E0,6.927593994E-1,1.078776672E1,1.093431101E1
6.622349958E0,-1.610950012E0,9.942324829E-1,1.029259644E1,1.046523767E1
6.632367958E0,-1.647773438E0,1.001866608E0,9.932744751E0,1.011821685E1
6.642385958E0,-1.813179474E0,7.367678833E-1,9.918823700E0,1.011006975E1
6.652404958E0,-1.845512238E0,5.084925842E-1,9.925260315E0,1.010817849E1
6.662422958E0,-1.735491028E0,4.364923096E-1,9.898615723E0,1.005907788E1
6.672440958E0,-1.632804565E0,4.599934387E-1,9.801617432E0,9.947328736E0
6.682459958E0,-1.690584412E0,5.284011841E-1,9.655371552E0,9.816490374E0
6.692477958E0,-1.708547058E0,6.497987366E-1,9.454339600E0,9.629429304E0
6.702495958E0,-1.730102234E0,7.455995178E-1,9.207502899E0,9.398259521E0
6.712514958E0,-1.766476593E0,8.125103760E-1,9.052126007E0,9.258595893E0
6.722532958E0,-1.807042236E0,9.144483948E-1,8.925489349E0,9.152375519E0
6.732550958E0,-1.858535156E0,1.025816803E0,8.679850159E0,8.935672992E0
6.742569958E0,-1.738035736E0,1.124910736E0,8.322243805E0,8.575892626E0
6.752587958E0,-1.440454559E0,1.057850189E0,7.920329590E0,8.119456704E0
6.762605958E0,-1.344803467E0,8.318202209E-1,7.508984985E0,7.673674267E0
6.772623958E0,-1.481319580E0,5.632786560E-1,7.209008789E0,7.381151554E0
6.782642958E0,-1.690584412E0,3.493734741E-1,7.113507385E0,7.319981202E0
6.792660958E0,-1.823657684E0,3.014730835E-1,7.439828796E0,7.666007167E0
6.802678958E0,-1.904788971E0,4.441264343E-1,8.108787689E0,8.341337249E0
6.812697958E0,-1.891766052E0,7.333250427E-1,8.781638489E0,9.012975034E0
6.822715958E0,-1.727856903E0,1.044527893E0,9.128766632E0,9.349380098E0
6.832733958E0,-1.331032104E0,1.367256775E0,9.127419434E0,9.324742520E0
6.842752958E0,-9.123527527E-1,1.593735809E0,8.893455963E0,9.081075946E0
6.852770958E0,-7.574249268E-1,1.634151764E0,8.596922607E0,8.783576881E0
6.862788958E0,-8.412506104E-1,1.567839661E0,7.933053131E0,8.130138730E0
6.872807958E0,-9.545649719E-1,1.360071716E0,7.336693268E0,7.522503404E0
6.882825958E0,-1.170416107E0,1.057401123E0,7.130272522E0,7.302654123E0
6.892843958E0,-1.357527008E0,8.411009216E-1,7.188351746E0,7.363608569E0
6.902862958E0,-1.517843628E0,7.786807251E-1,7.199877777E0,7.399218402E0
6.912880958E0,-1.560205536E0,7.144642639E-1,7.381899261E0,7.578729261E0
6.922898958E0,-1.472937012E0,5.897735596E-1,7.899223480E0,8.056991243E0
6.932916958E0,-1.410067749E0,5.960604858E-1,8.497529297E0,8.634325875E0
6.942935958E0,-1.341660004E0,7.535330200E-1,8.976832581E0,9.107765190E0
6.952953958E0,-1.356778564E0,9.598040771E-1,9.258247375E0,9.406232849E0
6.962971958E0,-1.499132538E0,1.243464203E0,9.447753296E0,9.646431668E0
6.972990958E0,-1.543889465E0,1.561552734E0,9.676777039E0,9.922804819E0
6.983008958E0,-1.527423706E0,1.656754761E0,9.774673462E0,1.003105681E1
6.993026958E0,-1.521735535E0,1.435215454E0,9.715396729E0,9.938030792E0
7.003045958E0,-1.475930786E0,1.068777466E0,9.573791199E0,9.745672623E0
7.013063958E0,-1.335073700E0,7.801776123E-1,9.384434967E0,9.510978842E0
7.023081958E0,-1.195264435E0,6.625222778E-1,9.272467804E0,9.372633142E0
7.033100958E0,-1.163829803E0,8.247848511E-1,9.274713135E0,9.383766493E0
7.043118958E0,-1.107397156E0,1.027014313E0,9.235045624E0,9.357732339E0
7.053136958E0,-1.006057892E0,1.236578522E0,9.135203247E0,9.273252789E0
7.063155958E0,-1.081501007E0,1.318757629E0,8.901688843E0,9.063599195E0
7.073173958E0,-1.278790741E0,1.336720276E0,8.750054169E0,8.943465481E0
7.083191958E0,-1.524130554E0,1.411115570E0,8.773854675E0,9.016359962E0
7.093210958E0,-1.571132813E0,1.376986542E0,8.902437286E0,9.144284548E0
7.103228958E0,-1.451531525E0,1.264869690E0,8.955127716E0,9.159757175E0
7.113246958E0,-1.239272919E0,1.299148407E0,9.018595734E0,9.195577902E0
7.123265958E0,-1.017434235E0,1.535057831E0,9.071884918E0,9.256925566E0
7.133283958E0,-8.695417786E-1,1.822310486E0,9.056616669E0,9.278966747E0
7.143301958E0,-6.984475708E-1,1.851649475E0,9.138646088E0,9.350469887E0
7.153320958E0,-7.464976501E-1,1.766476593E0,9.171727295E0,9.370073632E0
7.163338958E0,-8.173004150E-1,1.727407837E0,9.145382080E0,9.342908069E0
7.173356958E0,-9.310638428E-1,1.681154022E0,9.060209198E0,9.261778956E0
7.183374958E0,-1.006207581E0,1.589095459E0,8.984466705E0,9.179233086E0
7.193393958E0,-1.068478088E0,1.411414948E0,9.101972351E0,9.272520599E0
7.203411958E0,-1.125359802E0,1.319506073E0,9.483379211E0,9.640643766E0
7.213429958E0,-1.101409607E0,1.397793274E0,9.865085449E0,1.002431245E1
7.223448958E0,-9.618997192E-1,1.576222229E0,1.001028351E1,1.017917008E1
7.233466958E0,-7.458988953E-1,1.780397644E0,9.975406036E0,1.016045799E1
7.243484958E0,-6.101312256E-1,1.939816132E0,9.818981323E0,1.002733968E1
7.253503958E0,-7.161108398E-1,1.947599945E0,9.627828827E0,9.848911016E0
7.263521958E0,-9.621990967E-1,1.828447723E0,9.489965515E0,9.712285707E0
7.273539958E0,-1.191372528E0,1.697470093E0,9.575138397E0,9.797144918E0
7.283558958E0,-1.414109344E0,1.652413788E0,9.707313538E0,9.947970279E0
7.293576958E0,-1.475631409E0,1.677262115E0,9.716444550E0,9.969954410E0
7.303594958E0,-1.465751953E0,1.764231262E0,9.642797699E0,9.911835763E0
7.313613958E0,-1.359173584E0,1.826950836E0,9.555080109E0,9.822660438E0
7.323631958E0,-1.307980042E0,1.873953094E0,9.538015594E0,9.807968876E0
7.333649917E0,-1.326840820E0,1.764231262E0,9.672885132E0,9.921578770E0
7.343668917E0,-1.344953156E0,1.500779114E0,9.738299103E0,9.944632037E0
7.353686917E0,-1.318757629E0,1.303040314E0,9.729317780E0,9.904375811E0
7.363704917E0,-1.225202179E0,1.217118988E0,9.666298828E0,9.819360063E0
7.373723917E0,-1.211430817E0,1.218466187E0,9.587562561E0,9.740306994E0
7.383741917E0,-1.217118988E0,1.207389221E0,9.627230072E0,9.778687347E0
7.393759917E0,-1.308429108E0,1.304686890E0,9.601633301E0,9.777809399E0
7.403778917E0,-1.367705841E0,1.486708374E0,9.593101044E0,9.803494718E0
7.413796917E0,-1.407822418E0,1.667232971E0,9.613758087E0,9.858294695E0
7.423814917E0,-1.316063232E0,1.772613831E0,9.744136963E0,9.991115422E0
7.433832917E0,-1.102307739E0,1.805545349E0,9.888885956E0,1.011262289E1
7.443851917E0,-9.963281250E-1,1.811682587E0,1.000459534E1,1.021600663E1
7.453869917E0,-9.328601074E-1,1.790576477E0,9.931547241E0,1.013469401E1
7.463887917E0,-1.006656647E0,1.831142120E0,9.654024353E0,9.877581955E0
7.473906917E0,-1.119072876E0,1.856738892E0,9.427245941E0,9.673301890E0
7.483924917E0,-1.179397430E0,1.867815857E0,9.339228973E0,9.596922017E0
7.493942917E0,-1.283730469E0,1.934427338E0,9.408534851E0,9.690743062E0
7.503961917E0,-1.468596039E0,1.968107300E0,9.567055206E0,9.877184112E0
7.513979917E0,-1.549128571E0,1.950444031E0,9.677375793E0,9.992779068E0
7.523997917E0,-1.557211761E0,1.891915741E0,9.635013885E0,9.941717468E0
7.534016917E0,-1.525926819E0,1.846709747E0,9.445807343E0,9.744848172E0
7.544034917E0,-1.492695923E0,1.824106750E0,9.233249359E0,9.529344169E0
7.554052917E0,-1.497485962E0,1.833088074E0,9.075327759E0,9.378925846E0
7.564071917E0,-1.597028961E0,1.841770020E0,9.041797485E0,9.364652694E0
7.574089917E0,-1.770069122E0,1.836530914E0,9.095236359E0,9.446126980E0
7.584107917E0,-1.942510529E0,1.901196442E0,9.204958191E0,9.597872179E0
7.594126917E0,-2.007026367E0,2.008972321E0,9.253906403E0,9.679819644E0
7.604144917E0,-1.975292358E0,2.106120300E0,9.292825470E0,9.731090783E0
7.614162917E0,-1.950743408E0,2.190694427E0,9.290131073E0,9.742231637E0
7.624181917E0,-1.907333679E0,2.262245636E0,9.314081268E0,9.772808550E0
7.634199917E0,-1.853595428E0,2.319277039E0,9.324409790E0,9.785677285E0
7.644217917E0,-1.800156555E0,2.332898712E0,9.368418274E0,9.820908358E0
7.654236917E0,-1.761836243E0,2.308200073E0,9.508077850E0,9.941599415E0
7.664254917E0,-1.739382935E0,2.236648865E0,9.575288086E0,9.985699428E0
7.674272917E0,-1.759291534E0,2.149380341E0,9.518406372E0,9.915392197E0
7.684291917E0,-1.770218811E0,2.093396759E0,9.404193878E0,9.795654502E0
7.694309917E0,-1.771865387E0,2.048190765E0,9.308692474E0,9.694655638E0
7.704327917E0,-1.809437256E0,2.063608704E0,9.258097687E0,9.656340758E0
7.714346917E0,-1.844913483E0,2.134411469E0,9.276210022E0,9.695745997E0
7.724364917E0,-1.831591187E0,2.219284973E0,9.340426483E0,9.773613403E0
7.734382917E0,-1.823358307E0,2.261796570E0,9.403146057E0,9.841723173E0
7.744400917E0,-1.832639008E0,2.291584625E0,9.422156525E0,9.868483136E0
7.754419917E0,-1.847757568E0,2.338137817E0,9.351952515E0,9.815299910E0
7.764437917E0,-1.850901031E0,2.355202332E0,9.396410065E0,9.862318934E0
7.774455917E0,-1.827250214E0,2.310894470E0,9.461824036E0,9.909853212E0
7.784474917E0,-1.808389435E0,2.265688477E0,9.448801117E0,9.883494279E0
7.794492917E0,-1.747166748E0,2.264940033E0,9.430539093E0,9.854826867E0
7.804510917E0,-1.705702972E0,2.249222717E0,9.376651154E0,9.792344577E0
7.814529917E0,-1.681603088E0,2.219734039E0,9.313183136E0,9.720616661E0
7.824547917E0,-1.666933594E0,2.201921082E0,9.308692474E0,9.709731183E0
7.834565917E0,-1.689237213E0,2.174228668E0,9.303902435E0,9.702751836E0
7.844584917E0,-1.694326630E0,2.207309875E0,9.276808777E0,9.685150525E0
7.854602917E0,-1.637744293E0,2.177521820E0,9.334888000E0,9.724399294E0
7.864620917E0,-1.566642151E0,2.079775085E0,9.322763214E0,9.679552985E0
7.874639917E0,-1.574575653E0,2.049238586E0,9.042096863E0,9.404157748E0
7.884657917E0,-1.523681488E0,2.098785553E0,8.661588135E0,9.041549374E0
7.894675917E0,-1.610650635E0,2.085014191E0,9.100475464E0,9.474182461E0
7.904694917E0,-1.732497253E0,2.098037109E0,9.212592316E0,9.605996233E0
7.914712917E0,-1.713935852E0,2.113604736E0,9.430988159E0,9.815724056E0
7.924730917E0,-1.632355499E0,2.180964661E0,9.566007385E0,9.946340464E0
7.934749917E0,-1.658850403E0,2.274520111E0,9.569599915E0,9.975092427E0
7.944767917E0,-1.785037994E0,2.348466339E0,9.366622009E0,9.820145755E0
7.954785917E0,-1.822759552E0,2.422113190E0,9.399254150E0,9.875984167E0
7.964804917E0,-1.882934418E0,2.478845215E0,9.540560303E0,1.003555711E1
7.974822917E0,-1.917811890E0,2.518812103E0,9.609117737E0,1.011719134E1
7.984840917E0,-1.893113251E0,2.581381989E0,9.543404388E0,1.006598123E1
7.994859917E0,-1.793719940E0,2.631677399E0,9.506730652E0,1.002602039E1
8.004877917E0,-1.807790680E0,2.708916779E0,9.415270844E0,9.962613227E0
8.014895917E0,-1.903890839E0,2.811303864E0,9.338480530E0,9.936571257E0
8.024914917E0,-2.000140686E0,2.814746704E0,9.208700409E0,9.834811894E0
8.034932917E0,-2.172133026E0,3.022364960E0,9.310638428E0,1.002700552E1
8.044950917E0,-2.279459839E0,3.047362976E0,9.367220764E0,1.011074592E1
8.054968917E0,-2.122586060E0,2.983595581E0,9.287436676E0,9.983170548E0
8.064987917E0,-2.019600220E0,2.967578888E0,9.240434418E0,9.913169913E0
8.075005917E0,-1.985471191E0,2.867886200E0,9.070837097E0,9.718382209E0
8.085023917E0,-2.002236328E0,2.771786041E0,9.415121155E0,1.001679862E1
8.095042917E0,-1.994153137E0,2.706521759E0,9.509425049E0,1.008618221E1
8.105060917E0,-1.850302277E0,2.629581757E0,9.314829712E0,9.854155027E0
8.115078917E0,-1.776805115E0,2.628533936E0,9.267827454E0,9.795858961E0
8.125097917E0,-1.827549591E0,2.725981293E0,9.214388580E0,9.781404215E0
8.135115917E0,-1.865420837E0,2.785108337E0,9.172625427E0,9.765944940E0
8.145133917E0,-1.812880096E0,2.742147675E0,9.214538269E0,9.783333973E0
8.155152917E0,-1.798060913E0,2.663710785E0,9.242979126E0,9.785757064E0
8.165170917E0,-1.832489319E0,2.654280396E0,9.226064301E0,9.773611615E0
8.175188917E0,-1.872007141E0,2.698288879E0,9.232351227E0,9.799055199E0
8.185207917E0,-1.878743134E0,2.747386780E0,9.215735779E0,9.798346586E0
8.195225917E0,-1.828597412E0,2.789748688E0,9.288484497E0,9.869265955E0
8.205243917E0,-1.833537140E0,2.800226898E0,9.221723328E0,9.810367488E0
8.215262917E0,-1.845063171E0,2.792293396E0,9.159901886E0,9.752177351E0
8.225280917E0,-1.899250488E0,2.775228882E0,9.105415192E0,9.706576821E0
8.235298917E0,-1.882335663E0,2.761457520E0,9.185798035E0,9.774851442E0
8.245317917E0,-1.842219086E0,2.684966583E0,9.147777100E0,9.710027939E0
8.255335917E0,-1.849404144E0,2.634521484E0,9.073531494E0,9.627563187E0
8.265353917E0,-1.834135895E0,2.652783508E0,9.075627136E0,9.631631364E0
8.275372917E0,-1.860032043E0,2.597997437E0,8.992100830E0,9.542912932E0
8.285390917E0,-1.929637299E0,2.578388214E0,8.841813354E0,9.410061067E0
8.295408917E0,-2.020348663E0,2.711162109E0,9.056916046E0,9.667467971E0
8.305427917E0,-2.080673218E0,2.704426117E0,9.237290955E0,9.847368473E0
8.315445917E0,-2.137554932E0,2.610271912E0,9.405241699E0,9.992058445E0
8.325463917E0,-2.208058319E0,2.560425568E0,9.536219330E0,1.011784462E1
8.335483292E0,-2.222428436E0,2.604583740E0,9.447304230E0,1.004861194E1
8.345501292E0,-2.294428711E0,2.729274445E0,9.176517334E0,9.844887632E0
8.355519292E0,-2.394869843E0,2.926414490E0,8.909622345E0,9.678877707E0