"Time (s)","Acceleration x (m/s^2)","Acceleration y (m/s^2)","Acceleration z (m/s^2)","Absolute acceleration (m/s^2)"
-9.252916498E-4,-6.300398254E-1,3.688180389E0,8.635242920E0,9.411006591E0
9.093708330E-3,-7.301815796E-1,3.510050812E0,8.893605652E0,9.589048093E0
1.911370835E-2,-2.918930054E-1,3.608096924E0,9.445807343E0,1.011567305E1
2.913370833E-2,-1.922003174E-1,4.500391388E0,9.491761780E0,1.050637927E1
3.915370835E-2,-8.598120117E-1,4.695884857E0,8.943152618E0,1.013758305E1
4.917370834E-2,-1.071322174E0,4.488266602E0,8.815917206E0,9.950510764E0
5.919370835E-2,-7.821235657E-1,4.335883484E0,8.824748840E0,9.863457556E0
6.921270833E-2,-6.116281128E-1,4.296665039E0,8.625064087E0,9.655420753E0
7.923270835E-2,-6.420149231E-1,4.290976868E0,8.536298676E0,9.575649363E0
8.925270833E-2,-6.339317322E-1,4.203558655E0,8.571924591E0,9.568158966E0
9.927270835E-2,-5.960604858E-1,4.147874451E0,8.575666809E0,9.544747864E0
1.092927083E-1,-5.855822754E-1,4.098177795E0,8.466394043E0,9.424319388E0
1.193127084E-1,-6.074368286E-1,4.035607910E0,8.418343964E0,9.355406234E0
1.293317083E-1,-6.346801758E-1,4.054917755E0,8.612789612E0,9.540719146E0
1.393517083E-1,-7.047344971E-1,4.104015656E0,8.632398834E0,9.584252962E0
1.493717083E-1,-8.205935669E-1,4.120032349E0,8.627758484E0,9.596158440E0
1.593917084E-1,-9.226812744E-1,4.121529236E0,8.731792145E0,9.699615355E0
1.694117083E-1,-9.351054382E-1,4.109105072E0,8.878038025E0,9.827447575E0
1.794307083E-1,-9.225315857E-1,4.068539429E0,8.919950867E0,9.847314409E0
1.894507083E-1,-8.765771484E-1,4.399201813E0,9.009464722E0,1.006438367E1
1.994707084E-1,-1.102607117E0,4.263434143E0,9.151968384E0,1.015633489E1
2.094907083E-1,-1.184187469E0,3.968547363E0,9.110953674E0,1.000805401E1
2.195107084E-1,-1.073417816E0,3.916605377E0,9.204509125E0,1.006056717E1
2.295307083E-1,-8.951385498E-1,3.717669067E0,9.226213989E0,9.987259929E0
2.395497083E-1,-7.297325134E-1,3.534001007E0,9.185648346E0,9.869032789E0
2.495697083E-1,-5.616320801E-1,3.548969879E0,9.109456787E0,9.792487976E0
2.595897084E-1,-3.980223083E-1,3.449277191E0,9.107959900E0,9.747351868E0
2.696097083E-1,-2.812651062E-1,3.233276367E0,9.002429352E0,9.569583082E0
2.796297084E-1,-2.195933533E-1,2.993624725E0,8.802594910E0,9.300305768E0
2.896487083E-1,-1.438508606E-1,2.632725220E0,8.805738373E0,9.192005409E0
2.996687084E-1,-3.936813354E-2,2.337988129E0,8.973838806E0,9.273484850E0
3.096887083E-1,-5.313949585E-2,2.108515320E0,9.091344452E0,9.332802612E0
3.197087084E-1,-3.622467041E-2,2.066901855E0,9.181756439E0,9.411591088E0
3.297287083E-1,7.259902954E-2,2.153272247E0,9.338031464E0,9.583354507E0
3.397487083E-1,1.422042847E-1,2.374512177E0,9.594597931E0,9.885081668E0
3.497677083E-1,9.490264893E-2,3.227887573E0,9.765542450E0,1.028562512E1
3.597877084E-1,-3.252735901E-1,2.872825928E0,9.728719025E0,1.014923177E1
3.698077083E-1,-3.781137085E-1,2.433040466E0,9.748178558E0,1.005433444E1
3.798277083E-1,-2.507286072E-1,2.693199463E0,9.693093109E0,1.006341106E1
3.898477083E-1,-1.932481384E-1,2.759361877E0,9.517508240E0,9.911326143E0
3.998677083E-1,-1.610650635E-1,2.781665497E0,8.827293549E0,9.256603928E0
4.098867083E-1,-6.047424316E-2,2.900668030E0,9.079968109E0,9.532227075E0
4.199067084E-1,-2.874023438E-2,2.943329315E0,9.284442902E0,9.739861059E0
4.299267083E-1,-9.714797974E-2,2.811453552E0,8.972042542E0,9.402725997E0
4.399467083E-1,-1.646575928E-2,2.843636627E0,8.928034058E0,9.369969718E0
4.499667083E-1,2.020797729E-2,2.630180511E0,9.197024689E0,9.565747279E0
4.599857084E-1,1.077758789E-2,2.606230316E0,9.397757263E0,9.752455803E0
4.700057083E-1,-5.867797852E-2,2.672991486E0,9.466015320E0,9.836349558E0
4.800257083E-1,-1.844165039E-1,2.767145691E0,9.501341858E0,9.897807930E0
4.900457083E-1,-1.781295776E-1,2.735261993E0,9.505832520E0,9.893141069E0
5.000657083E-1,-1.919009399E-1,2.598446503E0,9.718240814E0,1.006145888E1
5.100857083E-1,-1.600172424E-1,2.590363312E0,9.766290894E0,1.010524742E1
5.201047084E-1,-1.609153748E-1,2.604733429E0,9.792785797E0,1.013455394E1
5.301247083E-1,-2.032772827E-1,2.608475647E0,9.957892456E0,1.029587728E1
5.401447083E-1,-2.495310974E-1,2.793939972E0,9.913584595E0,1.030279214E1
5.501647083E-1,-3.362008667E-1,3.016976166E0,9.736802216E0,1.019904376E1
5.601847083E-1,-3.969744873E-1,3.125350800E0,9.591005402E0,1.009518653E1
5.702037083E-1,-5.261558533E-1,3.150947571E0,9.673483887E0,1.018732551E1
5.802237083E-1,-5.418731689E-1,3.099604340E0,9.752369843E0,1.024743339E1
5.902437083E-1,-4.914280701E-1,3.075205078E0,9.719438324E0,1.020616819E1
6.002637083E-1,-4.589456177E-1,3.182082825E0,9.474846954E0,1.000544887E1
6.102837083E-1,-4.778063965E-1,3.072211304E0,9.376800842E0,9.878824590E0
6.203037083E-1,-3.718267822E-1,2.845582581E0,9.427844696E0,9.854940436E0
6.303227083E-1,-2.362088013E-1,2.710114288E0,9.478589172E0,9.861245700E0
6.403427083E-1,-1.422042847E-1,2.623444519E0,9.437424774E0,9.796308977E0
6.503627083E-1,-1.073268127E-1,2.691253510E0,9.540111237E0,9.913026122E0
6.603827083E-1,-9.819580078E-2,2.915936279E0,9.555828552E0,9.991305526E0
6.704027083E-1,-2.806663513E-1,2.922971649E0,9.146130524E0,9.605948179E0
6.804227083E-1,-4.019142151E-1,2.943029938E0,9.148974609E0,9.619079824E0
6.904417083E-1,-5.384303284E-1,2.881208496E0,9.211245117E0,9.666349167E0
7.004617083E-1,-3.405418396E-1,2.561174011E0,8.755293274E0,9.128567323E0
7.104817083E-1,-5.334906006E-1,2.305805054E0,8.937614136E0,9.245663611E0
7.205017083E-1,-5.415737915E-1,2.451601868E0,9.037755890E0,9.380015214E0
7.305217083E-1,-4.077520752E-1,2.722688141E0,9.636810150E0,1.002234515E1
7.405407083E-1,-4.305047607E-1,2.742447052E0,9.702972565E0,1.009227560E1
7.505607083E-1,-5.346881104E-1,2.805166626E0,9.488468628E0,9.908879254E0
7.605807083E-1,-6.515950012E-1,2.826123047E0,9.443412323E0,9.878744041E0
7.706007083E-1,-6.556365967E-1,2.868185577E0,9.319919128E0,9.773292199E0
7.806207083E-1,-5.460644531E-1,2.827619934E0,9.308542786E0,9.743848812E0
7.906397083E-1,-5.270539856E-1,2.843037872E0,9.464518433E0,9.896350813E0
8.006587084E-1,-5.541476440E-1,2.877166901E0,9.516610107E0,9.957461369E0
8.106787083E-1,-5.077441406E-1,2.932551727E0,9.550439758E0,1.000342758E1
8.206987084E-1,-4.200265503E-1,2.981949005E0,9.614356842E0,1.007493423E1
8.307187083E-1,-3.646417236E-1,2.943778381E0,9.474248199E0,9.927747665E0
8.407387083E-1,-2.652484131E-1,2.957699432E0,9.423952789E0,9.880750418E0
8.507577083E-1,-1.817221069E-1,2.986888733E0,9.378597107E0,9.844420294E0
8.607777084E-1,-1.957928467E-1,2.939736786E0,9.340725861E0,9.794363012E0
8.707977083E-1,-2.881507874E-1,2.775378571E0,9.366921387E0,9.773687807E0
8.808177083E-1,-3.082090759E-1,2.669848022E0,9.550739136E0,9.921678252E0
8.908377083E-1,-2.962339783E-1,2.647993469E0,9.564360809E0,9.928576014E0
9.008577083E-1,-3.375480652E-1,2.660567322E0,9.606273651E0,9.973617730E0
9.108767083E-1,-4.095483398E-1,2.661615143E0,9.620643768E0,9.990430998E0
9.208967084E-1,-4.508624268E-1,2.665357361E0,9.571845245E0,9.946236886E0
9.309167083E-1,-4.484674072E-1,2.718347168E0,9.514963531E0,9.905809676E0
9.409367083E-1,-4.769082642E-1,2.586920471E0,9.455986176E0,9.815053416E0
9.509567083E-1,-3.040177917E-1,2.905308380E0,9.398206329E0,9.841723721E0
9.609757084E-1,-4.772076416E-1,2.893333282E0,9.339977417E0,9.789498596E0
9.709957083E-1,-4.634362793E-1,2.927612000E0,9.341773682E0,9.800735724E0
9.810157083E-1,-4.665797424E-1,2.972967682E0,9.293424225E0,9.768519198E0
9.910357083E-1,-4.599934387E-1,2.919229431E0,9.344019012E0,9.800213556E0
1.001055708E0,-4.025129700E-1,2.881956940E0,9.361532593E0,9.803366002E0
1.011075708E0,-3.390449524E-1,2.817890167E0,9.250613251E0,9.676223540E0
1.021094708E0,-2.930905151E-1,2.801574097E0,9.232800293E0,9.652943630E0
1.031114708E0,-3.258723450E-1,2.776276703E0,9.319919128E0,9.730097516E0
1.041134708E0,-2.995271301E-1,2.685864716E0,9.444909210E0,9.823945020E0
1.051154708E0,-2.406994629E-1,2.720891876E0,9.419312439E0,9.807376594E0
1.061174708E0,-2.227368164E-1,2.756068726E0,9.343420258E0,9.743973964E0
1.071193708E0,-2.299218750E-1,2.839295654E0,9.317075043E0,9.742810233E0
1.081213708E0,-2.656974792E-1,2.884801025E0,9.309889984E0,9.750216594E0
1.091233708E0,-3.032693481E-1,2.880310364E0,9.361083527E0,9.798879777E0
1.101253708E0,-3.106040955E-1,2.902763672E0,9.409133606E0,9.851614439E0
1.111273708E0,-3.014730835E-1,2.936593323E0,9.396410065E0,9.849212581E0
1.121293708E0,-2.992277527E-1,2.891237640E0,9.364376678E0,9.805118200E0
1.131312708E0,-3.038681030E-1,2.849025421E0,9.356293488E0,9.785167832E0
1.141332708E0,-3.436853027E-1,2.880010986E0,9.373657379E0,9.812137154E0
1.151352708E0,-3.715274048E-1,2.920426941E0,9.418414307E0,9.867798852E0
1.161372708E0,-3.369493103E-1,2.966231689E0,9.436227264E0,9.897194060E0
1.171392708E0,-2.854563904E-1,2.985092468E0,9.404942322E0,9.871433658E0
1.181411708E0,-2.650987244E-1,2.943179626E0,9.384584656E0,9.838852210E0
1.191431708E0,-2.917433167E-1,2.917283478E0,9.415270844E0,9.861185634E0
1.201451708E0,-2.877017212E-1,2.885399780E0,9.405241699E0,9.842097114E0
1.211471708E0,-2.992277527E-1,2.882705383E0,9.416019287E0,9.851951420E0
1.221491708E0,-3.076103210E-1,2.857557678E0,9.404642944E0,9.834000656E0
1.231511708E0,-2.755769348E-1,2.791245575E0,9.409732361E0,9.818862338E0
1.241530708E0,-2.556683350E-1,2.805016937E0,9.369615784E0,9.783822681E0
1.251550708E0,-3.192860413E-1,2.830164642E0,9.384584656E0,9.807252655E0
1.261570708E0,-3.634442139E-1,2.839295654E0,9.421108704E0,9.846368910E0
1.271590708E0,-3.538641357E-1,2.877466278E0,9.387279053E0,9.824766665E0
1.281610708E0,-3.285667419E-1,2.897674255E0,9.343569946E0,9.788093355E0
1.291629708E0,-3.028202820E-1,2.886597290E0,9.299711151E0,9.742113299E0
1.301649708E0,-2.814147949E-1,2.884202271E0,9.279952240E0,9.721899537E0
1.311669708E0,-2.844085693E-1,2.907254333E0,9.261690216E0,9.711432523E0
1.321689708E0,-2.974314880E-1,2.918331299E0,9.250613251E0,9.704584925E0
1.331709708E0,-3.233276367E-1,2.951262817E0,9.255253601E0,9.719784576E0
1.341729708E0,-3.588038635E-1,2.969824219E0,9.255403290E0,9.726823025E0
1.351748708E0,-3.733236694E-1,2.961741028E0,9.277257843E0,9.745706417E0
1.361768708E0,-3.616479492E-1,2.933449860E0,9.320966949E0,9.778360915E0
1.371788708E0,-3.600013733E-1,2.899769897E0,9.327403564E0,9.774391219E0
1.381808708E0,-3.564088440E-1,2.885549469E0,9.323511658E0,9.766334657E0
1.391828708E0,-3.459306335E-1,2.881507874E0,9.353898468E0,9.793782322E0
1.401847708E0,-3.625460815E-1,2.897823944E0,9.369915161E0,9.814485896E0
1.411867708E0,-3.465293884E-1,2.913990326E0,9.351802826E0,9.801410018E0
1.421887708E0,-3.100053406E-1,2.899021454E0,9.292526093E0,9.739171930E0
1.431907708E0,-2.556683350E-1,2.865940247E0,9.292376404E0,9.727653315E0
1.441927708E0,-2.046244812E-1,2.850971375E0,9.367969208E0,9.794322643E0
1.451947708E0,-1.651066589E-1,2.857407990E0,9.390272827E0,9.816784830E0
1.461966708E0,-1.691482544E-1,2.869832153E0,9.414971466E0,9.844096476E0
1.471986708E0,-1.498384094E-1,2.871179352E0,9.432485046E0,9.860927774E0
1.482006708E0,-1.425036621E-1,2.883304138E0,9.444609833E0,9.875950837E0
1.492026708E0,-1.377136230E-1,2.886447601E0,9.453591156E0,9.885389752E0
1.502046708E0,-1.504371643E-1,2.887794800E0,9.460476837E0,9.892553368E0
1.512065708E0,-1.484912109E-1,2.902015228E0,9.463769989E0,9.899832546E0
1.522085708E0,-1.228944397E-1,2.921923828E0,9.458381195E0,9.900187712E0
1.532105708E0,-1.029858398E-1,2.925216980E0,9.488468628E0,9.929679621E0
1.542125708E0,-1.074765015E-1,2.921774139E0,9.488169250E0,9.928427421E0
1.552145708E0,-1.290316772E-1,2.896027679E0,9.471853180E0,9.905535228E0
1.562165708E0,-1.510359192E-1,2.863545227E0,9.433383179E0,9.859585251E0
1.572184708E0,-1.850152588E-1,2.858006744E0,9.400002594E0,9.826621086E0
1.582204708E0,-2.303709412E-1,2.850073242E0,9.339378662E0,9.767291439E0
1.592224708E0,-2.939886475E-1,2.867437134E0,9.260343018E0,9.698586384E0
1.602244708E0,-3.451821899E-1,2.842888184E0,9.285341034E0,9.716929663E0
1.612264708E0,-3.363505554E-1,2.846630402E0,9.253157959E0,9.686969008E0
1.622283708E0,-3.008743286E-1,2.876119080E0,9.210197296E0,9.653513379E0
1.632303708E0,-2.830613708E-1,2.908751221E0,9.179511108E0,9.633503080E0
1.642323708E0,-2.871029663E-1,2.951262817E0,9.109007721E0,9.579478169E0
1.652343708E0,-2.664459229E-1,2.948568420E0,9.062304840E0,9.533646636E0
1.662363708E0,-2.504292297E-1,2.896626434E0,9.068591766E0,9.523261843E0
1.672383708E0,-2.260299683E-1,2.883004761E0,9.098080444E0,9.546615828E0
1.682402708E0,-1.907034302E-1,2.903811493E0,9.086704102E0,9.541314397E0
1.692422708E0,-1.679507446E-1,2.883304138E0,9.086255035E0,9.534237294E0
1.702442708E0,-1.457968140E-1,2.862347717E0,9.083710327E0,9.525129105E0
1.712462708E0,-1.538800049E-1,2.844235382E0,9.075926514E0,9.512402223E0
1.722482708E0,-1.805245972E-1,2.858156433E0,9.095386047E0,9.535601432E0
1.732501708E0,-1.655557251E-1,2.865341492E0,9.094637604E0,9.536772185E0
1.742521708E0,-1.899549866E-1,2.811902618E0,9.131011963E0,9.556058743E0
1.752541708E0,-2.137554932E-1,2.771486664E0,9.147028656E0,9.560071285E0
1.762561708E0,-2.164498901E-1,2.728226624E0,9.097781067E0,9.500510060E0
1.772581708E0,-2.543211365E-1,2.710413666E0,9.033414917E0,9.434702250E0
1.782601708E0,-2.806663513E-1,2.738704834E0,8.908724213E0,9.324411234E0
1.792621000E0,-3.076103210E-1,2.759511566E0,8.773704987E0,9.202577214E0
1.802641000E0,-3.209326172E-1,2.755469971E0,8.665629730E0,9.098832405E0
1.812661000E0,-3.375480652E-1,2.747835846E0,8.565188599E0,9.001499667E0
1.822681000E0,-3.323089600E-1,2.731819153E0,8.423732758E0,8.861858648E0
1.832701000E0,-3.344046021E-1,2.720742188E0,8.303532715E0,8.744307865E0
1.842720000E0,-3.423381042E-1,2.713856506E0,8.211025085E0,8.654660332E0
1.852740000E0,-3.502716064E-1,2.697540436E0,8.123457184E0,8.566794688E0
1.862760000E0,-3.249742126E-1,2.683320007E0,8.073161774E0,8.513621763E0
1.872780000E0,-3.314108276E-1,2.616558838E0,8.020770721E0,8.443279946E0
1.882800000E0,-3.579057312E-1,2.550396423E0,8.051756287E0,8.453602648E0
1.892820000E0,-3.689826965E-1,2.502945099E0,8.046816559E0,8.435172739E0
1.902839000E0,-3.415896606E-1,2.385289764E0,8.009394379E0,8.364011542E0
1.912859000E0,-3.257226562E-1,2.295775909E0,7.983498230E0,8.313418446E0
1.922879000E0,-3.038681030E-1,2.233804779E0,7.986342316E0,8.298426550E0
1.932899000E0,-2.519261169E-1,2.192191315E0,8.004005585E0,8.302606514E0
1.942919000E0,-2.062710571E-1,2.189945984E0,7.922275543E0,8.221974273E0
1.952938000E0,-1.390608215E-1,2.174827423E0,7.795339508E0,8.094228208E0
1.962958000E0,-7.559280396E-2,2.183659058E0,7.679630127E0,7.984409812E0
1.972978000E0,-5.149291992E-2,2.187251587E0,7.591463470E0,7.900445472E0
1.982998000E0,-4.340972900E-2,2.158361664E0,7.488178253E0,7.793152316E0
1.993018000E0,-7.185058594E-2,2.110012207E0,7.330106964E0,7.628091644E0
2.003038000E0,-1.487905884E-1,2.061063995E0,7.128176880E0,7.421659455E0
2.013057000E0,-2.634521484E-1,2.001038818E0,6.997049561E0,7.282325586E0
2.023077000E0,-3.811074829E-1,1.909279633E0,6.889423370E0,7.159241999E0
2.033097000E0,-3.820056152E-1,1.789528656E0,6.767127686E0,7.010161069E0
2.043117000E0,-3.297642517E-1,1.664837952E0,6.668333130E0,6.880922656E0
2.053137000E0,-2.215393066E-1,1.575773163E0,6.481820984E0,6.674289774E0
2.063156000E0,-3.393443298E-1,1.580563202E0,6.292913818E0,6.497237793E0
2.073176000E0,2.291734314E-1,1.479673004E0,6.072122955E0,6.254009102E0
2.083196000E0,5.209167480E-2,1.461261292E0,5.896388397E0,6.074981007E0
2.093216000E0,8.457412720E-2,1.515897675E0,5.854176178E0,6.047848978E0
2.103236000E0,5.897735596E-2,1.415306854E0,5.617069244E0,5.792930063E0
2.113256000E0,6.451583862E-2,1.358574829E0,5.457650757E0,5.624574619E0
2.123275000E0,3.128494263E-2,1.343905334E0,5.290448456E0,5.458562554E0
2.133295000E0,-4.340972900E-2,1.359922028E0,5.018913116E0,5.200073191E0
2.143315000E0,1.796264648E-3,1.382525024E0,4.641098785E0,4.842641491E0
2.153335000E0,2.622546387E-1,1.323547668E0,4.000730438E0,4.222132159E0
2.163355000E0,5.304968262E-1,1.295106812E0,3.240910492E0,3.530188289E0
2.173374000E0,1.097667389E0,1.100661163E0,2.827021179E0,3.226201705E0
2.183394000E0,1.168769531E0,8.672964478E-1,2.363435211E0,2.775617290E0
2.193414000E0,3.781137085E-1,9.512718201E-1,2.002835083E0,2.249274644E0
2.203434000E0,-1.936972046E-1,9.286688232E-1,1.684147797E0,1.932950644E0
2.213454000E0,-3.691323853E-1,4.239184570E-1,8.620573425E-1,1.029129942E0
2.223474000E0,-6.288423157E-1,4.490661621E-2,-1.112187195E-1,6.401787764E-1
2.233493000E0,-6.367758179E-1,9.684860229E-2,-8.271798706E-1,1.048374758E0
2.243513000E0,-4.502636719E-1,2.173480225E-1,-1.681303711E0,1.754069470E0
2.253533000E0,1.305285645E-1,5.846841431E-1,-2.635419617E0,2.702652366E0
2.263553000E0,7.676037598E-1,1.096020813E0,-3.451223145E0,3.701542698E0
2.273573000E0,1.784289551E0,1.957180023E0,-3.715423737E0,4.562742200E0
2.283592000E0,2.429148560E0,3.071612549E0,-4.185296631E0,5.731690350E0
2.293612000E0,2.016905823E0,4.421655121E0,-4.919370117E0,6.915138860E0
2.303632000E0,7.768844604E-1,6.347400513E0,-5.297633514E0,8.304093183E0
2.313652000E0,-5.691165161E-1,9.267677765E0,-5.279820557E0,1.068130375E1
2.323672000E0,-9.279203796E-1,1.138173157E1,-4.888234863E0,1.242174262E1
2.333692000E0,-5.840853882E-1,1.143127853E1,-4.317621460E0,1.223344349E1
2.343711000E0,-5.186714172E-1,1.093580887E1,-2.658471680E0,1.126625081E1
2.353731000E0,-1.270258484E0,1.237596405E1,1.331331482E0,1.251201368E1
2.363751000E0,4.439917145E0,2.325309494E1,4.511618042E0,2.409925281E1
2.373771000E0,1.525238251E1,4.104359940E1,6.708449707E0,4.429690193E1
2.383791000E0,1.462638428E1,4.987433578E1,1.508143799E1,5.411866830E1
2.393810000E0,7.927814026E0,5.692018387E1,2.498634064E1,6.266637683E1
2.403830000E0,-2.218386841E-1,5.792085297E1,2.897135376E1,6.476274978E1
2.413850000E0,-4.087849274E0,5.277171066E1,2.551099960E1,5.875691499E1
2.423870000E0,-3.586691437E0,3.874737442E1,1.251876709E1,4.087716856E1
2.433890000E0,-4.115841064E0,2.580902985E1,1.299298096E-1,2.613547495E1
2.443909000E0,-5.844296722E0,1.361344070E1,-8.608298950E0,1.713430427E1
2.453929000E0,-7.237749023E0,4.988077240E0,-1.680824707E1,1.896794915E1
2.463949000E0,-8.236172791E0,-3.121009827E-1,-2.328138611E1,2.469726480E1
2.473969000E0,-7.897127838E0,-1.523382111E0,-2.631752243E1,2.751903538E1
2.483989000E0,-6.781797180E0,-2.453697510E0,-2.603266479E1,2.701320123E1
2.494009000E0,-5.093308411E0,-2.136806488E0,-2.486135056E1,2.546751821E1
2.504028000E0,-4.386029205E0,-2.091600494E0,-2.463487152E1,2.510953882E1
2.514048000E0,-3.467389526E0,-1.006057892E0,-2.375799500E1,2.403075673E1
2.524068000E0,-2.262844391E0,-5.993536377E-1,-2.123469223E1,2.136332941E1
2.534088000E0,-1.709295502E0,-1.459315338E0,-1.855271942E1,1.868835708E1
2.544108000E0,-1.295555878E0,-1.885329437E0,-1.647069901E1,1.662879604E1
2.554128000E0,-1.217568054E0,-1.975591736E0,-1.453148163E1,1.471561732E1
2.564147000E0,-1.551972656E0,-1.832788696E0,-1.255065079E1,1.277836330E1
2.574167000E0,-1.936223602E0,-1.313817902E0,-1.068193680E1,1.093521162E1
2.584187000E0,-2.053130493E0,-9.135502625E-1,-8.488847351E0,8.781255506E0
2.594207000E0,-1.683549042E0,-6.331832886E-1,-6.816375275E0,7.049697181E0
2.604227000E0,-1.046623535E0,6.376739502E-2,-5.772745514E0,5.867203582E0
2.614246000E0,-5.807922363E-1,9.419911194E-1,-4.782554626E0,4.908920008E0
2.624266000E0,-2.128573608E-1,1.908531189E0,-4.148024139E0,4.570984994E0
2.634286000E0,-7.379653931E-2,2.880160675E0,-3.747457123E0,4.726965869E0
2.644306000E0,-1.556762695E-2,3.919299774E0,-3.942202148E0,5.558966707E0
2.654326000E0,-2.844085693E-3,5.021158447E0,-4.098776550E0,6.481667181E0
2.664346000E0,-1.745370483E-1,6.321803741E0,-4.356091461E0,7.679270704E0
2.674365000E0,-6.655160522E-1,7.544461212E0,-4.597239990E0,8.859820660E0
2.684385000E0,-1.297801208E0,8.906478882E0,-4.882097626E0,1.023936186E1
2.694405000E0,-1.717678070E0,1.038719971E1,-5.055437164E0,1.167911729E1
2.704425000E0,-2.008672943E0,1.164218994E1,-5.192102966E0,1.290477767E1
2.714445000E0,-2.204465790E0,1.231219666E1,-5.381309509E0,1.361647340E1
2.724464000E0,-2.092947693E0,1.269315445E1,-5.591472473E0,1.402715810E1
2.734484000E0,-1.571881256E0,1.272503815E1,-5.764213257E0,1.405786474E1
2.744504000E0,-1.169218597E0,1.248463806E1,-5.629343719E0,1.374491798E1
2.754524000E0,-9.240284729E-1,1.221295303E1,-5.263803864E0,1.333107953E1
2.764544000E0,-6.792874146E-1,1.191626999E1,-4.867877197E0,1.289011832E1
2.774564000E0,-4.192781067E-1,1.142529099E1,-4.559967499E0,1.230879246E1
2.784583000E0,-1.664538574E-1,1.084330124E1,-4.354594574E0,1.168620480E1
2.794603125E0,1.338217163E-1,1.025143204E1,-4.359983368E0,1.114088067E1
2.804623125E0,3.905378723E-1,9.664203186E0,-4.411625977E0,1.063070020E1
2.814643125E0,4.535568237E-1,9.198072510E0,-4.452790375E0,1.022925187E1
2.824663125E0,4.129911804E-1,8.972341919E0,-4.483177185E0,1.003854366E1
2.834682125E0,4.334985352E-1,8.939560089E0,-4.515659637E0,1.002471134E1
2.844702125E0,3.947291565E-1,8.744815063E0,-4.487667847E0,9.837009927E0
2.854722125E0,2.652484131E-1,8.518635406E0,-4.337530060E0,9.563036805E0
2.864742125E0,1.983375549E-1,8.647367706E0,-4.190236359E0,9.611159492E0
2.874762125E0,1.913021851E-1,8.364456024E0,-4.307292938E0,9.410286582E0
2.884782125E0,2.168989563E-1,8.470735016E0,-4.448898468E0,9.570428122E0
2.894801125E0,-6.436614990E-2,8.891360321E0,-3.972588959E0,9.738680321E0
2.904821125E0,-6.556365967E-2,9.211245117E0,-3.109483795E0,9.722151237E0
2.914841125E0,-2.074685669E-1,9.429940338E0,-2.875520325E0,9.860802966E0
2.924861125E0,-4.784051514E-1,9.368268585E0,-2.744842072E0,9.773816336E0
2.934881125E0,-7.726931763E-1,9.087153168E0,-2.767594757E0,9.530634196E0
2.944900125E0,-9.136999512E-1,8.904981995E0,-2.774630127E0,9.371879442E0
2.954920125E0,-1.343755646E0,8.828491058E0,-2.880460052E0,9.383228853E0
2.964940125E0,-1.306183777E0,9.051976318E0,-2.865640869E0,9.584168661E0
2.974960125E0,-2.323168945E-1,8.532556458E0,-2.702480164E0,8.953317255E0
2.984980125E0,-4.784051514E-1,8.358618164E0,-2.945275269E0,8.875247349E0
2.995000125E0,-4.710704041E-1,8.505163422E0,-2.799029388E0,8.966285612E0
3.005019125E0,-1.188528442E-1,8.517587585E0,-2.775677948E0,8.959230567E0
3.015039125E0,-3.173400879E-2,8.543034668E0,-2.823728027E0,8.997660160E0
3.025059125E0,8.277786255E-2,8.599317627E0,-2.832409973E0,9.054151649E0
3.035079125E0,8.592132568E-2,8.776698761E0,-2.935395813E0,9.254964732E0
3.045099125E0,9.445358276E-2,8.973090363E0,-3.102149048E0,9.494661703E0
3.055118125E0,4.400848389E-2,9.197623444E0,-3.269051971E0,9.761399211E0
3.065138125E0,-4.026626587E-2,9.283544769E0,-3.475472717E0,9.912857079E0
3.075158125E0,-1.794767761E-1,9.219627686E0,-3.682342529E0,9.929420581E0
3.085178125E0,-5.147795105E-1,9.161847839E0,-3.608845367E0,9.860437042E0
3.095198125E0,-3.403921509E-1,9.420809326E0,-3.679348755E0,1.011954161E1
3.105217125E0,-2.829116821E-2,9.059460754E0,-3.565884705E0,9.736023997E0
3.115237125E0,4.296066284E-2,8.223898315E0,-3.321892090E0,8.869572491E0
3.125257125E0,1.039737854E0,9.692045288E0,-3.545227661E0,1.037233994E1
3.135277125E0,1.051862640E0,1.004321503E1,-3.604354706E0,1.072212460E1
3.145297125E0,5.507048035E-1,9.713600464E0,-3.722309418E0,1.041695239E1
3.155317125E0,2.339634705E-1,9.851613464E0,-3.864064636E0,1.058489595E1
3.165336125E0,1.919009399E-1,1.007554779E1,-3.777993622E0,1.076228252E1
3.175356125E0,1.158590698E-1,1.008857071E1,-3.427272949E0,1.065546255E1
3.185376125E0,4.385879517E-2,9.514215088E0,-3.132236481E0,1.001664204E1
3.195396125E0,-1.818717957E-1,9.622889099E0,-2.453697510E0,9.932457069E0
3.205416125E0,-1.133143616E-1,9.733059998E0,-1.846709747E0,9.907352520E0
3.215435125E0,-2.841091919E-1,9.970316620E0,-1.251248016E0,1.005253964E1
3.225455125E0,-2.899470520E-1,1.005025040E1,-6.837780762E-1,1.007765621E1
3.235475125E0,-1.643582153E-1,9.987081757E0,-7.484436035E-2,9.988714498E0
3.245495125E0,-1.019380188E-1,9.939780121E0,4.549040222E-1,9.950706401E0
3.255515125E0,-4.326004028E-2,9.713750153E0,9.651928711E-1,9.761680733E0
3.265535125E0,1.414558411E-1,9.398056641E0,1.536554718E0,9.523889897E0
3.275554125E0,4.968168640E-1,9.247619476E0,2.179168396E0,9.513888157E0
3.285574125E0,7.259902954E-1,9.161698151E0,2.720592499E0,9.584643888E0
3.295594125E0,8.167016602E-1,8.909622345E0,3.481759644E0,9.600574053E0
3.305614125E0,7.605683899E-1,8.635991364E0,4.360282745E0,9.704168008E0
3.315634125E0,8.824150085E-1,8.666976929E0,4.616250458E0,9.859255226E0
3.325653125E0,9.437873840E-1,8.880732422E0,4.212090912E0,9.874201377E0
3.335673125E0,1.061891785E0,9.209897919E0,3.621419220E0,9.953115643E0
3.345693125E0,1.166224823E0,9.480984192E0,3.056793365E0,1.002961252E1
3.355713125E0,9.363029480E-1,9.504335632E0,2.400558014E0,9.847422901E0
3.365733125E0,2.975811768E-1,8.967701569E0,1.631008301E0,9.119671817E0
3.375753125E0,1.447489929E-1,9.071735229E0,9.472302246E-1,9.122202445E0
3.385772125E0,3.138972473E-1,9.838590546E0,4.546046448E-1,9.854088532E0
3.395792125E0,-1.616638184E-2,1.047506699E1,3.296145630E-1,1.048026409E1
3.405812125E0,-8.343649292E-1,1.072010742E1,-6.840774536E-2,1.075274605E1
3.415832125E0,-1.251098328E0,1.069570816E1,-6.710545349E-1,1.078951965E1
3.425852125E0,-1.135089569E0,1.051967422E1,-1.100810852E0,1.063784558E1
3.435871125E0,-9.948312378E-1,1.023287064E1,-1.485061798E0,1.038781686E1
3.445891125E0,-8.196954346E-1,1.008003845E1,-1.848356323E0,1.028083153E1
3.455911125E0,-6.973997498E-1,9.946216736E0,-2.175875244E0,1.020529406E1
3.465931125E0,-6.664141846E-1,9.874515839E0,-2.721340942E0,1.026430063E1
3.475951125E0,-8.024812317E-1,9.701625366E0,-3.215313721E0,1.025201215E1
3.485971125E0,-8.527766418E-1,9.618697815E0,-3.586990814E0,1.030112027E1
3.495990125E0,-9.366023254E-1,9.473948822E0,-4.017944641E0,1.033328647E1
3.506010125E0,-9.204359436E-1,9.359586639E0,-4.321213989E0,1.034997366E1
3.516030125E0,-9.333091736E-1,9.265432434E0,-4.495900726E0,1.034081368E1
3.526050125E0,-8.752299500E-1,9.257199554E0,-4.481231232E0,1.032197677E1
3.536070125E0,-9.202862549E-1,9.260043640E0,-4.361929321E0,1.027724488E1
3.546089125E0,-1.072220306E0,9.304950256E0,-4.337679749E0,1.032217134E1
3.556109125E0,-1.147813110E0,9.348659363E0,-4.447850647E0,1.041625087E1
3.566129125E0,-1.149759064E0,9.327403564E0,-4.538711700E0,1.043658503E1
3.576149125E0,-1.278191986E0,9.163943481E0,-4.429888000E0,1.025843763E1
3.586169125E0,-1.271605682E0,9.052275696E0,-4.285737762E0,1.009595089E1
3.596188125E0,-1.363065491E0,9.040001221E0,-4.146676941E0,1.003865027E1
3.606208125E0,-1.391955414E0,9.145082703E0,-4.028123474E0,1.008939325E1
3.616228125E0,-1.129251709E0,9.156608734E0,-4.124822388E0,1.010607998E1
3.626248125E0,-8.159532166E-1,9.075776825E0,-4.314777374E0,1.008230174E1
3.636268125E0,-6.773414612E-1,8.911119232E0,-4.368216248E0,9.947268500E0
3.646288125E0,-6.026467896E-1,8.746761017E0,-4.547393646E0,9.876629000E0
3.656307125E0,-3.543132019E-1,8.737929382E0,-4.622836761E0,9.891792934E0
3.666327125E0,-2.483335876E-1,8.889863434E0,-4.554129639E0,9.991568356E0
3.676347125E0,-2.490820312E-1,9.075028381E0,-4.431085510E0,1.010211368E1
3.686367125E0,-3.746708679E-1,9.051078186E0,-4.218078461E0,9.992726379E0
3.696387125E0,-3.969744873E-1,8.950187988E0,-4.060306549E0,9.836134558E0
3.706407125E0,-3.758683777E-1,8.985813904E0,-3.955524445E0,9.825085352E0
3.716426125E0,-4.673281860E-1,9.268575897E0,-3.532354431E0,9.929875257E0
3.726446125E0,-7.304809570E-1,9.345515900E0,-3.366349640E0,9.960149585E0
3.736466125E0,-9.578581238E-1,9.434580688E0,-3.799099731E0,1.021577034E1
3.746486125E0,-1.135538635E0,9.610015869E0,-4.099674683E0,1.050948074E1
3.756506125E0,-1.121168518E0,9.655221863E0,-3.954776001E0,1.049383539E1
3.766525125E0,-1.015637970E0,9.662257233E0,-3.800147552E0,1.043225080E1
3.776545125E0,-9.791139221E-1,9.610015869E0,-3.868555298E0,1.040561335E1
3.786565125E0,-9.048683167E-1,9.443262634E0,-3.908222809E0,1.026002931E1
3.796584708E0,-8.143066406E-1,9.469607849E0,-3.819307709E0,1.024322603E1
3.806604708E0,-7.581733704E-1,9.552086334E0,-3.905977478E0,1.034764902E1
3.816624708E0,-7.268884277E-1,9.486672363E0,-3.994593201E0,1.031901614E1
3.826643708E0,-6.466552734E-1,9.409882050E0,-3.835474091E0,1.018208744E1
3.836663708E0,-6.343807983E-1,9.496551819E0,-3.651506653E0,1.019413735E1
3.846683708E0,-6.471043396E-1,9.481283569E0,-3.373534698E0,1.008435514E1
3.856703708E0,-7.110214233E-1,9.350605316E0,-3.222798157E0,9.915936628E0
3.866723708E0,-7.415579224E-1,9.348210297E0,-3.166365509E0,9.897717638E0
3.876742708E0,-6.035449219E-1,9.320817261E0,-3.047362976E0,9.824882798E0
3.886762708E0,-4.761598206E-1,9.344767456E0,-2.877316589E0,9.789298123E0
3.896782708E0,-5.105882263E-1,9.399703217E0,-2.727478180E0,9.800727428E0
3.906802708E0,-6.286926270E-1,9.386680298E0,-2.693648529E0,9.785742886E0
3.916822708E0,-6.580316162E-1,9.325158234E0,-2.620450745E0,9.708673637E0
3.926841708E0,-6.571334839E-1,9.283993835E0,-2.527943115E0,9.644421307E0
3.936861708E0,-7.562274170E-1,9.278904419E0,-2.540666656E0,9.650126123E0
3.946881708E0,-8.125103760E-1,9.236841888E0,-2.625390472E0,9.637016982E0
3.956901708E0,-7.740403748E-1,9.213340759E0,-2.625540161E0,9.611360340E0
3.966921708E0,-8.237370300E-1,9.272018738E0,-2.655028839E0,9.679775426E0
3.976941708E0,-7.565267944E-1,9.208700409E0,-2.751727753E0,9.640772876E0
3.986960708E0,-6.963519287E-1,9.173822937E0,-2.907104645E0,9.648584907E0
3.996980708E0,-8.128097534E-1,9.231752472E0,-2.899769897E0,9.710539576E0
4.007000708E0,-1.085841980E0,9.284143524E0,-2.973267059E0,9.808908746E0