"Time (s)","Acceleration x (m/s^2)","Acceleration y (m/s^2)","Acceleration z (m/s^2)","Absolute acceleration (m/s^2)"
1.986208343E-3,4.011657715E-1,5.293741608E0,8.543633423E0,1.005874278E1
1.200520832E-2,4.484674072E-1,5.061873779E0,8.156987457E0,9.610417970E0
2.202420833E-2,9.502239990E-1,4.832400970E0,8.059989166E0,9.445551871E0
3.204420832E-2,9.554631042E-1,4.887187042E0,8.440797272E0,9.800232932E0
4.206320833E-2,7.478448486E-1,5.055586853E0,8.595874786E0,1.000036468E1
5.208320834E-2,7.586224365E-1,5.118755493E0,8.515791321E0,9.964731187E0
6.210220832E-2,7.750881958E-1,5.056185608E0,8.429271240E0,9.859938552E0
7.212120833E-2,7.158114624E-1,4.994513855E0,8.401728516E0,9.800336563E0
8.214120835E-2,6.653663635E-1,5.030888214E0,8.361312561E0,9.780802440E0
9.216020833E-2,5.713618469E-1,5.084177399E0,8.321495361E0,9.768449172E0
1.021792083E-1,3.685336304E-1,5.063670044E0,8.330925751E0,9.756069660E0
1.121992083E-1,2.288740540E-1,5.040168915E0,8.258775787E0,9.677967944E0
1.222182083E-1,1.919009399E-1,5.047353973E0,8.135132904E0,9.575645956E0
1.322372083E-1,3.637435913E-1,5.061574402E0,7.865842896E0,9.360733373E0
1.422572083E-1,6.044430542E-1,5.235512695E0,7.536827087E0,9.196722630E0
1.522762083E-1,7.018904114E-1,5.378764801E0,7.546407166E0,9.293654935E0
1.622952083E-1,8.982820129E-1,5.162763977E0,7.930209045E0,9.505222668E0
1.723152083E-1,9.122030640E-1,4.902455292E0,8.556656342E0,9.903663467E0
1.823342083E-1,6.007008362E-1,4.723277893E0,8.716673584E0,9.932300535E0
1.923532083E-1,3.698808289E-1,4.755910034E0,8.622669067E0,9.854233300E0
2.023732083E-1,3.155438232E-1,4.881798248E0,8.611143036E0,9.903701653E0
2.123922083E-1,2.445913696E-1,4.874164124E0,8.693172455E0,9.969380531E0
2.224122083E-1,1.625619507E-1,4.826712799E0,8.735534363E0,9.981640318E0
2.324312083E-1,1.646575928E-1,4.786596222E0,8.859626312E0,1.007132533E1
2.424502083E-1,1.556762695E-1,4.716841278E0,8.888216858E0,1.006345992E1
2.524702083E-1,1.434017944E-1,4.639901276E0,8.908574524E0,1.004549391E1
2.624892083E-1,1.098715210E-1,4.548591156E0,9.079069977E0,1.015535646E1
2.725082083E-1,1.901046753E-2,4.544549561E0,9.295370178E0,1.034684487E1
2.825282083E-1,-6.376739502E-2,4.551734619E0,9.448651428E0,1.048805836E1
2.925472083E-1,-7.768844604E-2,4.566404114E0,9.409283295E0,1.045909624E1
3.025660833E-1,5.239105225E-2,4.571493530E0,9.213041382E0,1.028500994E1
3.125860833E-1,2.257305908E-1,4.512965240E0,8.987610168E0,1.005956988E1
3.226050833E-1,3.784130859E-1,4.511917419E0,8.834628296E0,9.927298343E0
3.326240833E-1,5.522016907E-1,4.503235474E0,8.724008331E0,9.833228249E0
3.426440833E-1,6.462062073E-1,4.581522675E0,8.648415527E0,9.808314005E0
3.526630833E-1,7.150630188E-1,4.553680573E0,8.592581635E0,9.750886166E0
3.626820833E-1,6.556365967E-1,4.654870148E0,8.683891754E0,9.874596267E0
3.727020833E-1,6.979985046E-1,4.772525482E0,8.669222260E0,9.920666105E0
3.827210833E-1,8.786727905E-1,4.735552368E0,8.630003815E0,9.883040420E0
3.927410833E-1,8.873547363E-1,4.633764038E0,8.670270081E0,9.870802949E0
4.027600833E-1,8.223898315E-1,4.543202362E0,8.715925140E0,9.863283621E0
4.127790833E-1,8.027806091E-1,4.448449402E0,8.671617279E0,9.779064629E0
4.227990833E-1,8.984317017E-1,4.412673798E0,8.606203308E0,9.713166577E0
4.328180833E-1,9.440867615E-1,4.394860840E0,8.536747742E0,9.647909806E0
4.428370833E-1,8.713380432E-1,4.337080994E0,8.423732758E0,9.514661061E0
4.528570833E-1,7.294331360E-1,4.236939240E0,8.440198517E0,9.472099969E0
4.628760833E-1,5.640270996E-1,4.165088654E0,8.531209259E0,9.510395443E0
4.728950833E-1,3.790118408E-1,4.221371613E0,8.508905640E0,9.506056146E0
4.829150833E-1,1.908531189E-1,4.097279663E0,8.501271515E0,9.439054133E0
4.929340833E-1,-1.966909790E-1,3.881428528E0,8.372539215E0,9.230578945E0
5.029530833E-1,-4.071533203E-1,3.607647858E0,8.445287933E0,9.192594039E0
5.129730833E-1,-6.240522766E-1,3.457210693E0,8.389304352E0,9.095173145E0
5.229920833E-1,-9.406439209E-1,3.452570343E0,8.412356415E0,9.141815652E0
5.330110833E-1,-1.133742371E0,3.302731934E0,8.270301819E0,8.977265851E0
5.430310833E-1,-1.215023346E0,3.114124146E0,8.340056763E0,8.985020742E0
5.530500833E-1,-1.276545410E0,3.046015778E0,8.586145020E0,9.199438385E0
5.630690833E-1,-1.479822693E0,2.937940521E0,8.786727905E0,9.382321514E0
5.730890833E-1,-1.621278534E0,2.847229156E0,8.953930206E0,9.534575192E0
5.831080833E-1,-1.422491913E0,2.740800476E0,8.911119232E0,9.430987035E0
5.931280833E-1,-1.306183777E0,2.615361328E0,8.790619812E0,9.263974720E0
6.031470833E-1,-1.339115295E0,2.596500549E0,8.647816772E0,9.127966904E0
6.131660833E-1,-1.327738953E0,2.708617401E0,8.488098907E0,9.008180838E0
6.231860833E-1,-1.209634552E0,3.051703949E0,8.293952637E0,8.919964298E0
6.332050833E-1,-1.094374237E0,3.310964813E0,8.190368042E0,8.901812828E0
6.432240833E-1,-1.006956024E0,3.284320221E0,8.510402527E0,9.177563452E0
6.532440833E-1,-6.141728210E-1,3.209475861E0,8.576265564E0,9.177705300E0
6.632630833E-1,-2.170486450E-1,3.171155548E0,8.402926025E0,8.984013770E0
6.732820833E-1,-5.523513794E-2,3.186274109E0,8.825946350E0,9.383641222E0
6.833020833E-1,-1.850152588E-1,3.388503571E0,9.336684265E0,9.934277033E0
6.933210833E-1,-8.110134888E-1,2.868484955E0,9.227860565E0,9.697389310E0
7.033400833E-1,-5.297483826E-1,2.659968567E0,9.289831696E0,9.677656692E0
7.133600833E-1,-3.685336304E-1,2.705773315E0,9.353898468E0,9.744354408E0
7.233790833E-1,-5.165757751E-1,2.373913422E0,9.621841278E0,9.923817060E0
7.333980833E-1,-6.725514221E-1,2.026934967E0,9.915530548E0,1.014290574E1
7.434180833E-1,-8.095166016E-1,1.871707764E0,9.921967163E0,1.012936521E1
7.534370833E-1,-8.119116211E-1,1.875449982E0,9.777816925E0,9.989104912E0
7.634570833E-1,-8.051756287E-1,1.930086365E0,9.697883148E0,9.920810386E0
7.734760833E-1,-8.749305725E-1,1.998344421E0,9.675878906E0,9.918745714E0
7.834950833E-1,-9.313632202E-1,2.071691895E0,9.583670654E0,9.849166866E0
7.935150833E-1,-9.550140381E-1,2.219734039E0,9.571545868E0,9.871867165E0
8.035340833E-1,-9.839039612E-1,2.388133850E0,9.681567078E0,1.002017921E1
8.135530833E-1,-9.583071899E-1,2.520458679E0,9.710756378E0,1.007818704E1
8.235730833E-1,-8.590635681E-1,2.646197205E0,9.711055756E0,1.010173024E1
8.335920833E-1,-7.584727478E-1,2.789149933E0,9.789342957E0,1.020714817E1
8.436110833E-1,-6.069877625E-1,2.885399780E0,1.000085312E1,1.042645813E1
8.536310833E-1,-4.514611816E-1,2.955154724E0,1.009755203E1,1.053077935E1
8.636500833E-1,-2.628533936E-1,3.014431458E0,1.003019211E1,1.047667135E1
8.736690833E-1,-9.954299927E-2,3.032394104E0,9.850565643E0,1.030722884E1
8.836890833E-1,1.646575928E-2,3.081492004E0,9.775272217E0,1.024947857E1
8.937080833E-1,1.113684082E-1,3.170407104E0,9.750274200E0,1.025337657E1
9.037270833E-1,1.673519897E-1,3.247796173E0,9.710606689E0,1.024070647E1
9.137470833E-1,1.977388000E-1,3.303929443E0,9.487720184E0,1.004847674E1
9.237660833E-1,2.683918762E-1,3.335214386E0,9.322014771E0,9.904324741E0
9.337860833E-1,2.586621094E-1,3.378025360E0,9.245972900E0,9.847130358E0
9.438050833E-1,2.230361938E-1,3.421285400E0,9.254954224E0,9.869605697E0
9.538240833E-1,2.189945984E-1,3.434757385E0,9.255702667E0,9.874894875E0
9.638440833E-1,2.877017212E-1,3.456911316E0,9.213640137E0,9.845007501E0
9.738630833E-1,3.345542908E-1,3.425326996E0,9.139394531E0,9.765926684E0
9.838820833E-1,3.665876770E-1,3.337010651E0,9.046288147E0,9.649111661E0
9.939020833E-1,3.987707520E-1,3.291355591E0,8.993897095E0,9.585521618E0
1.003921083E0,3.838018799E-1,3.303031311E0,9.012009430E0,9.605916598E0
1.013940083E0,3.121009827E-1,3.299139404E0,9.107959900E0,9.692092724E0
1.023960083E0,1.989363098E-1,3.227139130E0,9.279353485E0,9.826515340E0
1.033979083E0,1.086740112E-1,3.155887299E0,9.305399323E0,9.826591028E0
1.043998083E0,8.232879639E-2,3.083887024E0,9.349856873E0,9.845656948E0
1.054018083E0,6.481521606E-2,3.018323364E0,9.501491547E0,9.969594704E0
1.064037083E0,5.763015747E-2,2.899320831E0,9.662107544E0,1.008789892E1
1.074056083E0,7.723937988E-2,2.770139465E0,9.813293152E0,1.019707610E1
1.084076083E0,1.384620667E-1,2.680326233E0,9.890382843E0,1.024807266E1
1.094095083E0,1.829196167E-1,2.611469421E0,1.001686981E1,1.035330445E1
1.104115083E0,1.874102783E-1,2.491269379E0,1.017853363E1,1.048065325E1
1.114134083E0,2.212399292E-1,2.287692719E0,1.031235535E1,1.056537543E1
1.124153083E0,3.189866638E-1,2.099084930E0,1.035711227E1,1.057249662E1
1.134173083E0,4.213737488E-1,1.999990997E0,1.028960266E1,1.049063596E1
1.144192083E0,4.920268250E-1,1.987716522E0,1.020622604E1,1.040961851E1
1.154211083E0,4.424798584E-1,1.990560608E0,1.000878662E1,1.021439815E1
1.164231083E0,3.297642517E-1,1.994302826E0,9.759554901E0,9.966689525E0
1.174250083E0,2.387535095E-1,2.087409210E0,9.610764313E0,9.837737094E0
1.184269083E0,1.630110168E-1,2.243235168E0,9.463470612E0,9.727073179E0
1.194289083E0,1.317260742E-2,2.412682800E0,9.256002045E0,9.565290673E0
1.204308083E0,-1.899549866E-1,2.594853973E0,9.147627411E0,9.510438333E0
1.214327083E0,-4.150868225E-1,2.799179077E0,9.145980835E0,9.573748796E0
1.224347083E0,-6.900650024E-1,2.991080017E0,9.128916321E0,9.631192168E0
1.234366083E0,-9.425898743E-1,3.193309479E0,9.194629669E0,9.778901567E0
1.244385083E0,-1.113235016E0,3.381917267E0,9.352700958E0,1.000748079E1
1.254405083E0,-1.187031555E0,3.455863495E0,9.526788940E0,1.020351625E1
1.264424083E0,-1.174158325E0,3.358565826E0,9.837393036E0,1.046101878E1
1.274443083E0,-1.090332642E0,3.061284027E0,1.034408936E1,1.084253060E1
1.284463083E0,-9.792636108E-1,2.567011871E0,1.087877747E1,1.122035233E1
1.294482083E0,-7.378157043E-1,2.051334229E0,1.121138580E1,1.142136225E1
1.304501458E0,-4.662803650E-1,1.609004059E0,1.136900803E1,1.149176466E1
1.314520458E0,-3.162922668E-1,1.283730469E0,1.118339401E1,1.126127463E1
1.324539458E0,-3.131488037E-1,1.137783966E0,1.075543396E1,1.081998032E1
1.334559458E0,-3.327580261E-1,1.161883850E0,1.021386017E1,1.028511748E1
1.344578458E0,-3.020718384E-1,1.275647278E0,9.715845795E0,9.803886111E0
1.354597458E0,-2.633024597E-1,1.464404755E0,9.209897919E0,9.329310218E0
1.364617458E0,-3.059637451E-1,1.714384918E0,9.014853516E0,9.181520210E0
1.374636458E0,-4.504133606E-1,2.056573334E0,8.821306000E0,9.069057592E0
1.384655458E0,-7.114704895E-1,2.364183655E0,8.697214050E0,9.040856533E0
1.394675458E0,-1.156944122E0,2.673141174E0,8.693920898E0,9.168885648E0
1.404694458E0,-1.709894257E0,2.931803284E0,8.741372223E0,9.377142273E0
1.414713458E0,-2.095043335E0,3.194207611E0,8.861721954E0,9.649988852E0
1.424733458E0,-2.215093689E0,3.325185242E0,8.845256195E0,9.705774266E0
1.434752458E0,-2.119592285E0,3.253184967E0,8.765023041E0,9.586527671E0
1.444772458E0,-1.917961578E0,3.039728851E0,8.773405609E0,9.481095616E0
1.454791458E0,-1.735191650E0,2.787203979E0,8.765621796E0,9.360316317E0
1.464810458E0,-1.546434174E0,2.501148834E0,9.016649780E0,9.484048577E0
1.474830458E0,-1.373693390E0,2.208956451E0,9.030121765E0,9.397319896E0
1.484849458E0,-1.224753113E0,1.916913757E0,8.598419495E0,8.894233882E0
1.494868458E0,-1.086740112E0,1.814077606E0,8.056246948E0,8.329165416E0
1.504888458E0,-9.735754395E-1,1.756746826E0,7.277566223E0,7.549634341E0
1.514907458E0,-8.613088989E-1,2.063309326E0,7.407945099E0,7.738006784E0
1.524926458E0,-9.217831421E-1,2.322420502E0,7.538773041E0,7.942066489E0
1.534946458E0,-1.154100037E0,2.476899261E0,7.880362701E0,8.340689009E0
1.544965458E0,-1.252146149E0,2.625989227E0,8.390202484E0,8.880269541E0
1.554984458E0,-1.300046539E0,2.678380280E0,8.883726196E0,9.369334718E0
1.565004458E0,-1.645977173E0,2.667303314E0,9.361233215E0,9.872002590E0
1.575023458E0,-2.124681702E0,2.748733978E0,9.594597931E0,1.020422071E1
1.585042458E0,-2.624941406E0,2.838247833E0,9.736951904E0,1.047636390E1
1.595062458E0,-3.049907684E0,2.785108337E0,9.737251282E0,1.057699522E1
1.605081458E0,-3.492088165E0,2.736609192E0,9.658814392E0,1.062903594E1
1.615101458E0,-4.049229584E0,2.703078918E0,9.479936371E0,1.065702067E1
1.625120458E0,-4.645589447E0,2.539918213E0,9.248068542E0,1.065642799E1
1.635139458E0,-5.182822266E0,2.259850616E0,8.916807404E0,1.055831548E1
1.645159458E0,-5.515131226E0,1.929487610E0,8.578510895E0,1.037932773E1
1.655178458E0,-5.638474731E0,1.543889465E0,8.568481750E0,1.037279478E1
1.665197458E0,-5.659580841E0,1.258732452E0,8.697812805E0,1.045309573E1
1.675217458E0,-5.539979553E0,1.010997620E0,8.808283081E0,1.045463249E1
1.685236458E0,-5.439239044E0,6.644682312E-1,8.572822723E0,1.017448421E1
1.695255458E0,-5.240153046E0,3.607498169E-1,8.233179016E0,9.765991045E0
1.705275458E0,-5.340893555E0,4.361929321E-1,7.879015503E0,9.528603966E0
1.715294458E0,-5.548661499E0,4.635859680E-1,7.629334717E0,9.445067739E0
1.725313458E0,-5.709876251E0,5.201683044E-1,7.410789185E0,9.369794993E0
1.735333458E0,-5.443280640E0,6.872209167E-1,7.402107239E0,9.213727166E0
1.745352458E0,-5.703289948E0,1.380579071E0,7.282505951E0,9.352454636E0
1.755371458E0,-6.358776855E0,1.770967255E0,6.714736633E0,9.415840704E0
1.765391458E0,-6.429579620E0,1.781894531E0,5.629343719E0,8.729499008E0
1.775410458E0,-6.268215179E0,2.325863342E0,5.032235413E0,8.368007832E0
1.785429458E0,-7.212601318E0,2.667602692E0,6.933132477E0,1.035403534E1
1.795449458E0,-1.087787933E1,1.969155121E0,1.260393997E1,1.676499727E1
1.805468458E0,-1.234467911E1,2.020797729E0,1.426264069E1,1.897096848E1
1.815488458E0,-8.922794952E0,3.978127441E0,7.781568146E0,1.248977864E1
1.825507458E0,-7.643405457E0,4.094285889E0,5.236710205E0,1.012955861E1
1.835526458E0,-8.094118195E0,4.165388031E0,6.174210663E0,1.099936744E1
1.845546458E0,-6.996750183E0,4.527634735E0,7.038812714E0,1.090866050E1
1.855565458E0,-5.912704468E0,4.015100555E0,6.875502319E0,9.917340306E0
1.865584458E0,-5.616021423E0,3.353326721E0,6.173013153E0,8.993919508E0
1.875604458E0,-5.967340851E0,1.814826050E0,6.913672943E0,9.311370682E0
1.885623458E0,-6.829098816E0,3.299139404E-1,8.645421753E0,1.102219357E1
1.895642458E0,-6.853947144E0,4.626878357E-1,8.392148438E0,1.084522138E1
1.905662458E0,-6.095773773E0,9.041198730E-1,7.030130768E0,9.348723402E0
1.915681458E0,-6.002368011E0,1.023721161E0,6.978637848E0,9.261631226E0
1.925700458E0,-6.124663696E0,1.296753387E0,7.613168335E0,9.856642777E0
1.935720458E0,-5.555247803E0,1.857637024E0,8.481362915E0,1.030752688E1
1.945739458E0,-4.702920227E0,2.564317474E0,8.201295319E0,9.795633092E0
1.955759458E0,-3.461701355E0,2.114203491E0,9.872120819E0,1.067295658E1
1.965778458E0,-2.321971436E0,6.634204102E-1,1.425201279E1,1.445515640E1
1.975797458E0,-1.891017609E0,4.040098572E-1,4.454436951E0,4.856045728E0
1.985817458E0,1.159339142E0,8.017327881E-1,1.999990997E0,2.446795189E0
1.995836458E0,3.555107117E0,1.156944122E0,2.780617676E0,4.659306920E0
2.005855458E0,3.395988007E0,5.325924683E-1,4.619842987E0,5.758414582E0
2.015875458E0,2.376907196E0,1.924996948E-1,8.536747742E0,8.863566210E0
2.025894458E0,1.640438690E0,1.144669647E0,1.282503021E1,1.298008889E1
2.035913458E0,1.374142456E0,2.915487213E0,1.477547424E1,1.512292869E1
2.045933458E0,7.108717346E-1,2.813549194E0,1.108729385E1,1.146078020E1
2.055952458E0,6.078858948E-1,1.400936737E0,9.816586304E0,9.934662332E0
2.065971458E0,-1.175056458E-1,2.423460388E-1,9.687105560E0,9.690848947E0
2.075991458E0,-8.066725159E-1,1.636097717E-1,8.822353821E0,8.860666772E0
2.086010458E0,-1.333576813E0,3.731739807E-1,7.631580048E0,7.756203966E0
2.096029458E0,-2.053579559E0,3.004252625E-1,6.749913483E0,7.061782804E0
2.106049458E0,-2.181264038E0,4.706213379E-1,7.018904114E0,7.365080597E0
2.116068458E0,-2.350561981E0,7.734416199E-1,7.945776672E0,8.322182436E0
2.126088458E0,-2.562970276E0,1.028211823E0,8.446036377E0,8.886032110E0
2.136107458E0,-2.641407166E0,1.591191101E0,7.661667480E0,8.258938764E0
2.146126458E0,-2.451751556E0,1.949096832E0,8.164621582E0,8.744776140E0
2.156146458E0,-2.220781860E0,2.099833374E0,8.301736450E0,8.846468242E0
2.166165458E0,-2.091750183E0,2.358794861E0,7.943830719E0,8.546565305E0
2.176184458E0,-1.826052704E0,2.765349426E0,7.861052856E0,8.530989271E0
2.186204458E0,-1.724114685E0,2.909349976E0,7.649991760E0,8.364165389E0
2.196223458E0,-1.389111328E0,2.836002502E0,7.943082275E0,8.547812382E0
2.206242458E0,-1.168320465E0,3.040626984E0,7.633975067E0,8.299877137E0
2.216262458E0,-1.252894592E0,2.958298187E0,7.589218140E0,8.241207739E0
2.226281458E0,-9.096583557E-1,2.629282379E0,8.132288818E0,8.595040755E0
2.236300458E0,-1.268911285E0,2.420017548E0,8.544980621E0,8.971249333E0
2.246320458E0,-2.427951050E0,2.379302216E0,8.890761566E0,9.518490771E0
2.256339458E0,-2.778522034E0,2.705174561E0,9.289831696E0,1.006673368E1
2.266358458E0,-2.837798767E0,3.214265900E0,9.770033112E0,1.066949643E1
2.276378458E0,-2.848426666E0,2.884052582E0,1.086186264E1,1.159359107E1
2.286397458E0,-2.942880249E0,3.200943604E0,1.152139114E1,1.231458639E1
2.296421708E0,-1.751956787E0,2.751428375E0,1.044468018E1,1.094216865E1
2.306440708E0,-1.723665619E0,2.246228943E0,1.220442078E1,1.252854557E1
2.316459708E0,-1.717079315E0,2.135159912E0,1.211565536E1,1.242160916E1
2.326479708E0,-1.562001801E0,1.707199860E0,1.209275299E1,1.231215074E1
2.336498708E0,-1.489851837E0,1.561552734E0,1.232566864E1,1.251320154E1
2.346517708E0,-1.852248230E0,1.428928528E0,1.225696152E1,1.247821165E1
2.356537708E0,-2.013612671E0,1.190175018E0,1.201132233E1,1.223695291E1
2.366556708E0,-2.189496918E0,8.545729065E-1,1.168470154E1,1.191874329E1
2.376575708E0,-2.578687592E0,6.134243774E-1,1.139430542E1,1.169855184E1
2.386595708E0,-3.032843170E0,5.861810303E-1,1.111798004E1,1.153911721E1
2.396614708E0,-3.181184692E0,6.057902527E-1,1.089599167E1,1.136703797E1
2.406633708E0,-3.053799591E0,4.623884583E-1,1.065948349E1,1.109793149E1
2.416653708E0,-3.054098969E0,5.745053101E-1,1.063059357E1,1.107551789E1
2.426672708E0,-3.379522247E0,9.593550110E-1,1.072759186E1,1.128816902E1
2.436692708E0,-3.295247498E0,1.070424042E0,1.070873108E1,1.125528254E1
2.446711708E0,-3.015628967E0,1.108594666E0,1.064900528E1,1.112314315E1
2.456730708E0,-2.510429535E0,1.057251434E0,1.065648972E1,1.099912770E1
2.466750708E0,-2.288141785E0,9.379495239E-1,1.069570816E1,1.097786478E1
2.476769708E0,-2.082619171E0,8.487350464E-1,1.064556244E1,1.088051715E1
2.486788708E0,-1.767674103E0,7.879614258E-1,1.054527100E1,1.072139428E1
2.496808708E0,-1.611848145E0,8.120613098E-1,1.033331177E1,1.048974881E1
2.506827708E0,-1.392703857E0,8.978329468E-1,1.007689499E1,1.021222506E1
2.516846708E0,-1.229543152E0,8.499325562E-1,9.884544983E0,9.996919087E0
2.526866708E0,-1.320404205E0,9.806108093E-1,9.642797699E0,9.782055627E0
2.536885708E0,-1.307231598E0,1.094823303E0,9.365125122E0,9.519089298E0
2.546905708E0,-1.218765564E0,1.173858948E0,9.164542236E0,9.319451096E0
2.556924708E0,-1.005159760E0,1.177152100E0,9.028475189E0,9.160207282E0
2.566943708E0,-9.301657104E-1,1.308279419E0,8.969497833E0,9.112008268E0
2.576963708E0,-9.614506531E-1,1.441652069E0,8.945996704E0,9.112277711E0
2.586982708E0,-9.574090576E-1,1.526974640E0,8.903335419E0,9.083923449E0
2.597001708E0,-1.024918671E0,1.555265808E0,8.830886078E0,9.025179164E0
2.607021708E0,-1.016685791E0,1.509610748E0,8.679550781E0,8.868324327E0
2.617040708E0,-1.015188904E0,1.416953430E0,8.487949219E0,8.665082081E0
2.627059708E0,-1.035097504E0,1.335073700E0,8.303981781E0,8.474075882E0
2.637079708E0,-1.097817078E0,1.298849030E0,8.049061890E0,8.226761723E0
2.647098708E0,-8.722361755E-1,1.073717194E0,7.993078308E0,8.111902699E0
2.657117708E0,-8.666976929E-1,1.172062683E0,7.926915894E0,8.059831971E0
2.667137708E0,-9.252259827E-1,1.273401947E0,7.626191254E0,7.786937053E0
2.677156708E0,-7.327262878E-1,1.333576813E0,7.606731720E0,7.757427563E0
2.687176708E0,-5.974076843E-1,1.632654877E0,7.490124207E0,7.689240438E0
2.697195708E0,-4.819976807E-1,1.895657959E0,7.623047791E0,7.869987197E0
2.707214708E0,-3.906875610E-1,2.101330261E0,7.783514099E0,8.071636598E0
2.717234708E0,-2.689906311E-1,2.234104156E0,7.917934570E0,8.231480134E0
2.727253708E0,-2.007325745E-1,2.401905212E0,8.206983490E0,8.553596917E0
2.737272708E0,-2.963836670E-1,2.550695801E0,8.490493927E0,8.870308871E0
2.747292708E0,-4.535568237E-1,2.691552887E0,8.819360046E0,9.232078984E0
2.757311708E0,-6.740483093E-1,2.753524017E0,9.042096863E0,9.476062015E0
2.767330708E0,-9.810598755E-1,2.925516357E0,9.285341034E0,9.784614584E0
2.777350708E0,-1.187779999E0,3.026556244E0,9.494007111E0,1.003528948E1
2.787369708E0,-1.434616699E0,3.099005585E0,9.706265717E0,1.028948759E1
2.797389708E0,-1.604214020E0,3.187920685E0,9.883497162E0,1.050808532E1
2.807408708E0,-1.706601105E0,3.140619049E0,1.005399261E1,1.067046123E1
2.817427708E0,-1.722767487E0,3.040776672E0,1.036190231E1,1.093541358E1
2.827447708E0,-1.675914917E0,2.783611450E0,1.075752960E1,1.123750981E1
2.837466708E0,-1.548230438E0,2.281106415E0,1.131916168E1,1.165005945E1
2.847485708E0,-1.342258759E0,1.614692230E0,1.193707672E1,1.212034200E1
2.857505708E0,-1.114432526E0,9.148974609E-1,1.247356110E1,1.255662071E1
2.867524708E0,-1.017733612E0,1.802252197E-1,1.273626480E1,1.277813382E1
2.877543708E0,-9.815089417E-1,-4.201762390E-1,1.274494675E1,1.278958856E1
2.887563708E0,-1.001716919E0,-7.397616577E-1,1.260962814E1,1.267096705E1
2.897582708E0,-1.005159760E0,-7.605683899E-1,1.240305771E1,1.246694233E1
2.907602708E0,-9.535171509E-1,-5.584886169E-1,1.211700256E1,1.216728629E1
2.917621708E0,-8.440946960E-1,-2.872526550E-1,1.169173691E1,1.172568641E1
2.927640708E0,-7.655081177E-1,6.586303711E-3,1.118429214E1,1.121046104E1
2.937660708E0,-8.165519714E-1,3.620970154E-1,1.068253555E1,1.071981517E1
2.947679708E0,-9.135502625E-1,6.505471802E-1,1.017838394E1,1.023998464E1
2.957698708E0,-1.146465912E0,8.397537231E-1,9.799222412E0,9.901733701E0
2.967718708E0,-1.444496155E0,9.151968384E-1,9.431287537E0,9.585058111E0
2.977737708E0,-1.721270599E0,8.598120117E-1,9.210047607E0,9.408880173E0
2.987756708E0,-1.841620331E0,9.222322083E-1,9.141939240E0,9.371079487E0
2.997776708E0,-1.803000641E0,9.571096802E-1,9.048383789E0,9.275781339E0
3.007795708E0,-1.750310211E0,1.060394897E0,9.177714844E0,9.403109748E0
3.017815708E0,-1.551523590E0,1.240470428E0,9.338779907E0,9.547711898E0
3.027834708E0,-1.444945221E0,1.362466736E0,9.109157410E0,9.323139547E0
3.037853708E0,-1.370849304E0,1.596729584E0,9.153764648E0,9.392559844E0
3.047873708E0,-1.373244324E0,2.023641815E0,9.259145508E0,9.576674877E0
3.057892708E0,-1.337019653E0,2.436183929E0,8.857530670E0,9.283235603E0
3.067911708E0,-1.497785339E0,2.841091919E0,8.529113617E0,9.113777664E0
3.077931708E0,-1.524130554E0,2.978955231E0,8.283324738E0,8.933678801E0
3.087950708E0,-1.682201843E0,2.954106903E0,7.973469086E0,8.667915545E0
3.097969708E0,-1.788929901E0,2.993774414E0,7.835456085E0,8.576556856E0
3.107989708E0,-2.096839600E0,2.874622192E0,7.818391571E0,8.589961339E0
3.118008708E0,-2.396366730E0,2.874771881E0,7.839647369E0,8.687172022E0
3.128027708E0,-2.594404907E0,2.906655579E0,7.865094452E0,8.777203097E0
3.138047708E0,-2.741399231E0,2.901117096E0,7.969128113E0,8.912842029E0
3.148066708E0,-2.890189819E0,3.020269318E0,8.019722900E0,9.043847596E0
3.158086708E0,-2.991828461E0,3.072211304E0,8.050858154E0,9.121723349E0
3.168105708E0,-2.994672546E0,3.092568970E0,8.056845703E0,9.134813035E0
3.178124708E0,-3.023712158E0,3.122955780E0,8.029153290E0,9.130333541E0
3.188144708E0,-3.024759979E0,3.107088776E0,8.006250916E0,9.105120939E0
3.198163708E0,-3.065475311E0,2.983595581E0,8.024662628E0,9.093634684E0
3.208182708E0,-3.137924652E0,2.825673981E0,8.109685822E0,9.143194666E0
3.218202708E0,-3.218457184E0,2.553090820E0,8.238418121E0,9.205882496E0
3.228221708E0,-3.349883881E0,2.200274506E0,8.492140503E0,9.390387651E0
3.238240708E0,-3.602708130E0,1.837279358E0,8.881780243E0,9.759155783E0
3.248260708E0,-3.821253662E0,1.548529816E0,9.304201813E0,1.017684114E1
3.258279708E0,-3.943100281E0,1.315464478E0,9.726473694E0,1.057746553E1
3.268299708E0,-3.896397400E0,1.138083344E0,1.018347336E1,1.096267650E1
3.278318708E0,-3.904630280E0,1.049467621E0,1.059781174E1,1.134288912E1
3.288337708E0,-3.800596619E0,9.392967224E-1,1.094374237E1,1.162292175E1
3.298354208E0,-3.635639648E0,8.325686646E-1,1.117291580E1,1.177901073E1
3.308373208E0,-3.497926025E0,9.265731812E-1,1.136960678E1,1.193155408E1
3.318392208E0,-3.320844269E0,9.154962158E-1,1.159443924E1,1.209533634E1
3.328412208E0,-3.231330414E0,7.997868347E-1,1.191582092E1,1.237206302E1
3.338431208E0,-3.055595856E0,6.902146912E-1,1.215247879E1,1.254973319E1
3.348450208E0,-2.859803009E0,5.566923523E-1,1.236398895E1,1.270262187E1
3.358470208E0,-2.662962341E0,4.363426208E-1,1.252460495E1,1.281200579E1
3.368489208E0,-2.479593658E0,2.914439392E-1,1.257190659E1,1.281741626E1
3.378509208E0,-2.323168945E0,1.799258423E-1,1.242296631E1,1.263960360E1
3.388528208E0,-2.103575592E0,1.544787598E-1,1.220472015E1,1.238564039E1
3.398547208E0,-1.877246246E0,2.148033142E-1,1.184157532E1,1.199137606E1
3.408567208E0,-1.695524139E0,3.161425781E-1,1.140523270E1,1.153490707E1
3.418586208E0,-1.500928802E0,4.498146057E-1,1.095496902E1,1.106645683E1
3.428605208E0,-1.378932495E0,6.162684631E-1,1.046443909E1,1.057287695E1
3.438625208E0,-1.489552460E0,8.123606873E-1,1.006776398E1,1.020972908E1
3.448644208E0,-1.593885498E0,1.023272095E0,9.686506805E0,9.869952931E0
3.458663208E0,-1.653461609E0,1.235381012E0,9.377399597E0,9.601860483E0
3.468683208E0,-1.750010834E0,1.432071991E0,9.104217682E0,9.380839392E0
3.478702208E0,-1.927691345E0,1.594783630E0,8.889114990E0,9.234483963E0
3.488722208E0,-2.066452789E0,1.701362000E0,8.785231018E0,9.183961227E0
3.498741208E0,-2.128124542E0,1.724414063E0,8.633895721E0,9.057961871E0
3.508760208E0,-2.035616913E0,1.663939819E0,8.547525330E0,8.942741257E0
3.518780208E0,-2.010618896E0,1.583856354E0,8.480015717E0,8.857869713E0
3.528799208E0,-1.942510529E0,1.448537750E0,8.459358673E0,8.799565781E0
3.538818208E0,-1.805395660E0,1.233435059E0,8.384065247E0,8.664488767E0
3.548838208E0,-1.670376434E0,1.038240967E0,8.347690887E0,8.576248882E0
3.558857208E0,-1.518292694E0,9.098080444E-1,8.273145905E0,8.460372719E0
3.568876208E0,-1.442550201E0,9.698332214E-1,8.174351349E0,8.357125555E0
3.578896208E0,-1.367107086E0,9.419911194E-1,8.102051697E0,8.270403300E0
3.588915208E0,-1.359173584E0,9.852511597E-1,7.961194611E0,8.136257881E0
3.598934208E0,-1.347348175E0,1.041534119E0,7.874225464E0,8.056275013E0
3.608954208E0,-1.386117554E0,1.139879608E0,7.797135773E0,8.000998291E0
3.618973208E0,-1.432371368E0,1.286275177E0,7.803871765E0,8.037823468E0
3.628993208E0,-1.412911835E0,1.340312805E0,7.880662079E0,8.117733247E0
3.639012208E0,-1.469045105E0,1.409319305E0,7.952362976E0,8.208797191E0
3.649031208E0,-1.544338531E0,1.437161407E0,8.027656403E0,8.300221788E0
3.659051208E0,-1.572779388E0,1.495839386E0,8.136031036E0,8.420580235E0
3.669070208E0,-1.576222229E0,1.572330322E0,8.172106018E0,8.469947811E0
3.679089208E0,-1.567689972E0,1.646725616E0,8.240813141E0,8.548705067E0
3.689109208E0,-1.554217987E0,1.733096008E0,8.346194000E0,8.664765987E0
3.699128208E0,-1.539099426E0,1.770368500E0,8.440647583E0,8.760568662E0
3.709147208E0,-1.502575378E0,1.837129669E0,8.528215485E0,8.852301257E0
3.719167208E0,-1.465452576E0,1.892215118E0,8.644074554E0,8.969283930E0
3.729186208E0,-1.470242615E0,1.927391968E0,8.780890045E0,9.109362389E0
3.739206208E0,-1.535057831E0,2.020198975E0,8.971892853E0,9.323758245E0
3.749225208E0,-1.582060089E0,2.050286407E0,9.167086945E0,9.525863296E0
3.759244208E0,-1.578766937E0,2.068847809E0,9.372609558E0,9.727201356E0
3.769264208E0,-1.597028961E0,2.074086914E0,9.617051239E0,9.966946000E0
3.779283208E0,-1.619182892E0,2.100731506E0,9.844578094E0,1.019561396E1
3.789302208E0,-1.590592346E0,2.105222168E0,1.006402176E1,1.040415678E1
3.799322208E0,-1.644330597E0,2.131417694E0,1.027867538E1,1.062534386E1
3.809341208E0,-1.675166473E0,2.126028900E0,1.046997757E1,1.081418568E1
3.819360208E0,-1.678759003E0,2.081721039E0,1.063703018E1,1.096805385E1
3.829380208E0,-1.706002350E0,2.060315552E0,1.079884369E1,1.112521322E1
3.839399208E0,-1.721270599E0,2.076032867E0,1.091170898E1,1.124002126E1
3.849419208E0,-1.736538849E0,2.137105865E0,1.108100693E1,1.141803412E1
3.859438208E0,-1.733994141E0,2.103725281E0,1.136227203E1,1.168476022E1
3.869457208E0,-1.688189392E0,2.031425629E0,1.165551224E1,1.195105180E1
3.879477208E0,-1.667831726E0,1.986219635E0,1.188363785E1,1.216337040E1
3.889496208E0,-1.678759003E0,1.991309052E0,1.201701050E1,1.229601906E1
3.899515208E0,-1.719474335E0,1.967508545E0,1.209574677E1,1.237476350E1
3.909535208E0,-1.707050171E0,1.977088623E0,1.213586334E1,1.241378584E1
3.919554208E0,-1.658401337E0,1.874851227E0,1.217223770E1,1.242693578E1
3.929573208E0,-1.587448883E0,1.723515930E0,1.213167206E1,1.235588799E1
3.939593208E0,-1.458866272E0,1.500779114E0,1.201835770E1,1.219924385E1
3.949612208E0,-1.288370819E0,1.262774048E0,1.177885574E1,1.191620494E1
3.959631208E0,-1.076710968E0,1.058898010E0,1.138667130E1,1.148637692E1
3.969651208E0,-8.708889771E-1,8.918453979E-1,1.088446564E1,1.095561171E1
3.979670208E0,-6.815327454E-1,8.581654358E-1,1.026235931E1,1.032070509E1
3.989690208E0,-5.653742981E-1,9.913883972E-1,9.637708282E0,9.705046110E0
3.999709208E0,-4.785548401E-1,1.204096069E0,9.067693634E0,9.159799666E0
4.009728208E0,-4.243675232E-1,1.444346466E0,8.621471558E0,8.751913867E0
4.019748208E0,-4.599934387E-1,1.716779938E0,8.253836060E0,8.443028901E0
4.029767208E0,-5.186714172E-1,1.998943176E0,8.030500488E0,8.291787018E0
4.039786208E0,-5.471122742E-1,2.183060303E0,7.948770447E0,8.261236938E0
4.049806208E0,-6.015989685E-1,2.258054352E0,8.033943329E0,8.366897644E0
4.059825208E0,-6.002517700E-1,2.189347229E0,8.228987732E0,8.536379945E0
4.069844208E0,-5.607339478E-1,2.002984772E0,8.535101166E0,8.784891716E0
4.079864208E0,-4.258644104E-1,1.751657410E0,8.815019073E0,8.997456610E0
4.089883208E0,-2.817141724E-1,1.490600281E0,9.046886902E0,9.173189995E0
4.099903208E0,-1.734892273E-1,1.291065216E0,9.208850098E0,9.300530524E0
4.109922208E0,-7.469467163E-2,1.172811127E0,9.196725311E0,9.271505902E0
4.119941208E0,-5.224136353E-2,1.161285095E0,9.115294647E0,9.189119040E0
4.129961208E0,-1.302291870E-2,1.285526733E0,8.997938690E0,9.089315115E0
4.139980208E0,5.553451538E-2,1.440753937E0,8.855135651E0,8.971749182E0
4.149999208E0,5.149291992E-2,1.623074799E0,8.685688019E0,8.836186942E0
4.160019208E0,1.556762695E-2,1.820514221E0,8.546627197E0,8.738383765E0
4.170038208E0,-8.622070312E-2,2.008672943E0,8.399333496E0,8.636608373E0
4.180057208E0,-1.908531189E-1,2.154170380E0,8.262518005E0,8.540847659E0
4.190077208E0,-2.980302429E-1,2.247725830E0,8.177345123E0,8.485874539E0
4.200096208E0,-3.534150696E-1,2.318827972E0,8.122858429E0,8.454743901E0
4.210116208E0,-4.216731262E-1,2.367177429E0,8.134234772E0,8.482164378E0
4.220135208E0,-4.975653076E-1,2.405797119E0,8.223598938E0,8.582715800E0
4.230154208E0,-5.439688110E-1,2.401456146E0,8.342152405E0,8.697953807E0
4.240174208E0,-5.616320801E-1,2.358345795E0,8.445886688E0,8.786935042E0
4.250193208E0,-5.375321960E-1,2.227966919E0,8.553363190E0,8.855100186E0
4.260212208E0,-5.212161255E-1,2.098635864E0,8.689430237E0,8.954447866E0
4.270232208E0,-5.608836365E-1,2.041754150E0,8.787476349E0,9.038976217E0
4.280251208E0,-5.984555054E-1,1.996997223E0,8.814120941E0,9.057310576E0
4.290270208E0,-6.192622375E-1,2.050885162E0,8.901239777E0,9.155418354E0
4.300289833E0,-6.086343384E-1,2.119891663E0,8.888965302E0,9.158497723E0
4.310308833E0,-6.640191650E-1,2.276166687E0,8.838669891E0,9.151171602E0
4.320328833E0,-7.176077271E-1,2.484383698E0,8.852141876E0,9.222122261E0
4.330347833E0,-7.679031372E-1,2.661764832E0,8.883875885E0,9.305800234E0
4.340366833E0,-7.982899475E-1,2.881208496E0,8.976982269E0,9.461756703E0
4.350386833E0,-8.449928284E-1,3.078049164E0,9.154662781E0,9.695166330E0
4.360405833E0,-8.181985474E-1,3.160228271E0,9.396709442E0,9.947594681E0
4.370424833E0,-7.978408813E-1,3.122806091E0,9.694140930E0,1.021591094E1
4.380444833E0,-7.875123596E-1,2.980452118E0,1.001522324E1,1.047892967E1
4.390463833E0,-7.855664063E-1,2.864892426E0,1.034378998E1,1.076191035E1
4.400482833E0,-8.565188599E-1,2.756068726E0,1.064421524E1,1.102854739E1
4.410502833E0,-9.331594849E-1,2.640658722E0,1.097173416E1,1.132355137E1
4.420521833E0,-9.072633362E-1,2.427501984E0,1.134775223E1,1.163990435E1
4.430540833E0,-8.270301819E-1,2.206860809E0,1.170865173E1,1.194348102E1
4.440560833E0,-7.888595581E-1,2.063758392E0,1.195758408E1,1.215998417E1
4.450579833E0,-7.840695190E-1,2.011517029E0,1.209574677E1,1.228690586E1
4.460599833E0,-7.918533325E-1,2.050286407E0,1.224423798E1,1.243993849E1
4.470618833E0,-8.246351624E-1,2.169887695E0,1.237940689E1,1.259516378E1
4.480637833E0,-8.375083923E-1,2.267784119E0,1.248703308E1,1.271889383E1
4.490657833E0,-8.126600647E-1,2.311792603E0,1.251891678E1,1.275649163E1
4.500676833E0,-7.529342651E-1,2.215542755E0,1.253732849E1,1.275382866E1
4.510695833E0,-7.420069885E-1,2.085313568E0,1.244347366E1,1.263879519E1
4.520715833E0,-7.222480774E-1,1.869312744E0,1.229258743E1,1.245486564E1
4.530734833E0,-6.833290100E-1,1.609453125E0,1.203257812E1,1.215895613E1
4.540753833E0,-6.917115784E-1,1.415157166E0,1.162647263E1,1.173268939E1
4.550773833E0,-7.195536804E-1,1.351389771E0,1.117411331E1,1.127851143E1
4.560792833E0,-7.255412292E-1,1.360820160E0,1.067220703E1,1.078305358E1
4.570811833E0,-7.117698669E-1,1.425186310E0,1.013198044E1,1.025645163E1
4.580831833E0,-7.494914246E-1,1.607207794E0,9.636660461E0,9.798473306E0
4.590850833E0,-7.497908020E-1,1.798809357E0,9.188941498E0,9.393324608E0
4.600870833E0,-8.012837219E-1,2.023492126E0,8.774303741E0,9.040187063E0
4.610889833E0,-8.442443848E-1,2.194736023E0,8.492888947E0,8.812421770E0
4.620908833E0,-8.997789001E-1,2.289938049E0,8.242310028E0,8.601691284E0
4.630928833E0,-9.439370728E-1,2.364033966E0,8.046367493E0,8.439413701E0
4.640947833E0,-9.675878906E-1,2.336341553E0,7.870932312E0,8.267181723E0
4.650966833E0,-9.976753235E-1,2.294877777E0,7.740104370E0,8.134558115E0
4.660986833E0,-9.912387085E-1,2.227667542E0,7.670948181E0,8.049130565E0
4.671005833E0,-9.198371887E-1,2.157463531E0,7.600295105E0,7.953944621E0
4.681024833E0,-8.464897156E-1,2.111509094E0,7.522906036E0,7.859333987E0
4.691044833E0,-7.301815796E-1,2.071691895E0,7.523055725E0,7.837183160E0
4.701063833E0,-6.421646118E-1,2.062261505E0,7.549101563E0,7.852020906E0
4.711083833E0,-5.376818848E-1,2.102078705E0,7.566465454E0,7.871418942E0
4.721102833E0,-4.569996643E-1,2.167492676E0,7.581434326E0,7.898418806E0
4.731121833E0,-3.891906738E-1,2.248025208E0,7.612868958E0,7.947380731E0
4.741141833E0,-3.278182983E-1,2.355352020E0,7.636519775E0,7.998223694E0
4.751160833E0,-3.200344849E-1,2.482288055E0,7.593409424E0,7.995251262E0
4.761179833E0,-3.333567810E-1,2.640359344E0,7.573800201E0,8.027768912E0
4.771199833E0,-3.471281433E-1,2.803220673E0,7.576943665E0,8.086322983E0
4.781218833E0,-3.855981445E-1,2.991678772E0,7.621850281E0,8.197037849E0
4.791237833E0,-3.787124634E-1,3.137774963E0,7.754624176E0,8.373962680E0
4.801257833E0,-3.460803223E-1,3.209475861E0,8.002209320E0,8.628780962E0
4.811276833E0,-3.366499329E-1,3.218906250E0,8.286168823E0,8.895801504E0
4.821296833E0,-2.751278687E-1,3.162922668E0,8.584199066E0,9.152499591E0
4.831315833E0,-1.207987976E-1,3.030747528E0,8.947044525E0,9.447202161E0
4.841334833E0,-2.140548706E-2,2.870879974E0,9.313632202E0,9.746084076E0
4.851354833E0,6.750961304E-2,2.703078918E0,9.665550385E0,1.003663576E1
4.861373833E0,1.685494995E-1,2.557880859E0,1.005309448E1,1.037477094E1
4.871392833E0,2.853067017E-1,2.392325134E0,1.039303757E1,1.066863859E1
4.881412833E0,4.435276794E-1,2.266885986E0,1.073477692E1,1.098047924E1
4.891431833E0,5.842350769E-1,2.158511353E0,1.097697327E1,1.120243027E1
4.901450833E0,7.050338745E-1,2.057022400E0,1.117007172E1,1.137975905E1
4.911470833E0,8.298742676E-1,2.007774811E0,1.131991013E1,1.152650061E1
4.921489833E0,9.512718201E-1,2.039359131E0,1.135583542E1,1.157665331E1
4.931508833E0,1.059945831E0,2.133962402E0,1.129685806E1,1.154540094E1
4.941528833E0,1.120719452E0,2.305805054E0,1.118923187E1,1.147918372E1
4.951547833E0,1.182690582E0,2.474504242E0,1.106513992E1,1.139996710E1
4.961567833E0,1.269959106E0,2.509082336E0,1.093446167E1,1.129029416E1
4.971586833E0,1.373244324E0,2.552192688E0,1.080093933E1,1.118301292E1
4.981605833E0,1.414558411E0,2.610571289E0,1.065738785E1,1.106327138E1
4.991625833E0,1.426832886E0,2.560275879E0,1.057191559E1,1.097070025E1
5.001644833E0,1.429527283E0,2.491419067E0,1.049901718E1,1.088485549E1
5.011663833E0,1.419947205E0,2.360441437E0,1.043435165E1,1.079183155E1
5.021683833E0,1.437311096E0,2.174827423E0,1.042971130E1,1.075056349E1
5.031702833E0,1.496587830E0,2.031725006E0,1.037896683E1,1.068132174E1
5.041721833E0,1.572180634E0,1.944606171E0,1.028077103E1,1.058052447E1
5.051741833E0,1.734892273E0,1.902393951E0,1.019455032E1,1.051464741E1
5.061760833E0,1.915865936E0,1.855541382E0,1.006926086E1,1.041650567E1
5.071779833E0,2.072739716E0,1.836381226E0,9.851763153E0,1.023356161E1
5.081799833E0,2.153122559E0,1.799707489E0,9.586814117E0,9.989088483E0
5.091818833E0,2.071093140E0,1.889820099E0,9.173673248E0,9.592555846E0
5.101838833E0,1.981429596E0,2.074835358E0,8.754095764E0,9.212230873E0
5.111857833E0,1.871558075E0,2.180216217E0,8.404572601E0,8.882168260E0
5.121876833E0,1.702858887E0,2.276915131E0,8.205935669E0,8.684552441E0
5.131896833E0,1.590742035E0,2.350861359E0,8.095315704E0,8.578528178E0
5.141915833E0,1.444795532E0,2.427352295E0,8.096363525E0,8.574997121E0
5.151934833E0,1.313967590E0,2.448159027E0,8.215515747E0,8.672640454E0
5.161954833E0,1.250050507E0,2.366578674E0,8.403375092E0,8.819298942E0
5.171973833E0,1.228944397E0,2.224973145E0,8.635093231E0,9.001424606E0
5.181992833E0,1.282682648E0,2.034419403E0,8.877588959E0,9.197593316E0
5.192012833E0,1.386716309E0,1.892813873E0,9.033564606E0,9.333328236E0
5.202031833E0,1.519041138E0,1.794468384E0,9.175170135E0,9.471607560E0
5.212051833E0,1.607956238E0,1.751807098E0,9.258097687E0,9.558594256E0
5.222070833E0,1.696272583E0,1.774859161E0,9.236542511E0,9.557258146E0
5.232089833E0,1.777104492E0,1.814526672E0,9.180259552E0,9.525112748E0
5.242109833E0,1.798509979E0,1.831441498E0,9.066795502E0,9.423141556E0
5.252128833E0,1.700463867E0,1.851649475E0,8.903335419E0,9.251462842E0
5.262147833E0,1.638941803E0,1.856738892E0,8.751551056E0,9.095232566E0
5.272167833E0,1.529219971E0,1.860930176E0,8.516390076E0,8.850450540E0
5.282186833E0,1.329086151E0,1.993554382E0,8.300089874E0,8.638994212E0
5.292205833E0,1.098266144E0,2.062860260E0,8.056995392E0,8.389085511E0
5.302229958E0,8.924441528E-1,2.132315826E0,7.804470520E0,8.139593813E0
5.312248958E0,7.198530579E-1,2.276915131E0,7.658074951E0,8.021760586E0
5.322267958E0,6.116281128E-1,2.422861633E0,7.533533936E0,7.937158245E0
5.332287958E0,5.081932068E-1,2.551144867E0,7.541467438E0,7.977489052E0
5.342306958E0,3.957769775E-1,2.644550629E0,7.591164093E0,8.048357580E0
5.352326958E0,2.634521484E-1,2.740351410E0,7.735913086E0,8.211168258E0
5.362345958E0,1.990859985E-1,2.823428650E0,7.921227722E0,8.411731879E0
5.372364958E0,1.300794983E-1,2.836900635E0,8.121361542E0,8.603571304E0
5.382384958E0,5.987548828E-2,2.849773865E0,8.377778320E0,8.849404824E0
5.392403958E0,-2.933898926E-2,2.853366394E0,8.675808563E0,9.133028785E0
5.402422958E0,-1.131646729E-1,2.732717285E0,9.021589508E0,9.427068858E0
5.412442958E0,-2.484832764E-1,2.672692108E0,9.343420258E0,9.721343999E0
5.422461958E0,-3.439846802E-1,2.679428101E0,9.668095093E0,1.003841238E1
5.432480958E0,-4.590953064E-1,2.521805878E0,9.958940277E0,1.028351909E1
5.442500958E0,-6.280938721E-1,2.417921906E0,1.018661682E1,1.048847036E1
5.452519958E0,-7.976911926E-1,2.345771942E0,1.038211029E1,1.067366719E1
5.462539958E0,-9.747729492E-1,2.194286957E0,1.056652679E1,1.083589249E1
5.472558958E0,-1.085692291E0,2.029329987E0,1.065888474E1,1.090452804E1
5.482577958E0,-1.271605682E0,1.958377533E0,1.071801178E1,1.096941202E1
5.492597958E0,-1.467248840E0,2.077679443E0,1.076651093E1,1.106288066E1
5.502616958E0,-1.577719116E0,2.148482208E0,1.086231171E1,1.118458712E1
5.512635958E0,-1.610950012E0,2.162103882E0,1.110899872E1,1.143152246E1
5.522655958E0,-1.635199585E0,2.205214233E0,1.150896698E1,1.183187088E1
5.532674958E0,-1.608405304E0,2.072739716E0,1.206386307E1,1.234584990E1
5.542693958E0,-1.586101685E0,1.795815582E0,1.261426849E1,1.283979913E1
5.552713958E0,-1.611698456E0,1.456321564E0,1.300181259E1,1.318201711E1
5.562732958E0,-1.590592346E0,9.837542725E-1,1.330223785E1,1.343306698E1
5.572751958E0,-1.526675262E0,5.132826233E-1,1.346255447E1,1.355856074E1
5.582771958E0,-1.445693665E0,6.855743408E-2,1.345581848E1,1.353343199E1
5.592790958E0,-1.322499847E0,-3.186872864E-1,1.322814194E1,1.329790610E1
5.602810958E0,-1.259031830E0,-5.550457764E-1,1.284718414E1,1.292065700E1
5.612829958E0,-1.299148407E0,-5.188211060E-1,1.227462479E1,1.235408336E1
5.622848958E0,-1.346899109E0,-3.700305176E-1,1.164248932E1,1.172598044E1
5.632868958E0,-1.334025879E0,-1.767823792E-1,1.095122681E1,1.103359622E1
5.642887958E0,-1.325493622E0,8.711883545E-2,1.034992722E1,1.043482230E1
5.652906958E0,-1.283580780E0,3.498225403E-1,9.852511597E0,9.941928394E0
5.662926958E0,-1.280587006E0,6.565347290E-1,9.375303955E0,9.485107547E0
5.672945958E0,-1.278341675E0,9.160949707E-1,9.005123749E0,9.141424460E0
5.682964958E0,-1.279838562E0,1.096918945E0,8.652756500E0,8.815407703E0
5.692984958E0,-1.204694824E0,1.227597198E0,8.422834625E0,8.596652117E0
5.703003958E0,-1.128652954E0,1.297052765E0,8.247698822E0,8.425006779E0
5.713023958E0,-9.746232605E-1,1.355131989E0,8.151598663E0,8.320747200E0
5.723042958E0,-8.804690552E-1,1.386865997E0,8.126450958E0,8.290827958E0
5.733061958E0,-8.146060181E-1,1.420396271E0,8.133037262E0,8.296228278E0
5.743081958E0,-7.713459778E-1,1.419049072E0,8.142168274E0,8.300817977E0
5.753100958E0,-7.625143433E-1,1.415157166E0,8.205785980E0,8.361759473E0
5.763119958E0,-7.268884277E-1,1.428030396E0,8.268056488E0,8.421899767E0
5.773139958E0,-7.568261719E-1,1.449435883E0,8.291407928E0,8.451100264E0
5.783158958E0,-8.223898315E-1,1.469943237E0,8.321345673E0,8.490103177E0
5.793177958E0,-8.761280823E-1,1.428928528E0,8.349786530E0,8.516359095E0
5.803197958E0,-9.306147766E-1,1.415007477E0,8.399932251E0,8.568964456E0
5.813216958E0,-1.014889526E0,1.432221680E0,8.458909607E0,8.639120987E0
5.823236958E0,-1.081800385E0,1.453627167E0,8.518635406E0,8.709217715E0
5.833255958E0,-1.116378479E0,1.451082458E0,8.615184631E0,8.807573300E0
5.843274958E0,-1.172511749E0,1.430126038E0,8.727451172E0,8.921235802E0
5.853294958E0,-1.174158325E0,1.370400238E0,8.865015106E0,9.046830241E0
5.863313958E0,-1.126856689E0,1.255588989E0,9.009913788E0,9.166507305E0
5.873332958E0,-1.101708984E0,1.165775757E0,9.096583557E0,9.236916597E0
5.883352958E0,-1.082997894E0,1.090931396E0,9.205407257E0,9.332874076E0
5.893371958E0,-1.066232758E0,1.039887543E0,9.357640686E0,9.475423875E0
5.903390958E0,-1.051413574E0,9.610015869E-1,9.539811859E0,9.645569183E0
5.913410958E0,-9.665400696E-1,8.785231018E-1,9.770781555E0,9.857696219E0
5.923429958E0,-8.424481201E-1,7.911048889E-1,9.930349731E0,9.997370233E0
5.933448958E0,-7.729925537E-1,7.301815796E-1,1.008258316E1,1.013849919E1
5.943468958E0,-6.804849243E-1,6.535409546E-1,1.022673340E1,1.027016317E1
5.953487958E0,-5.471122742E-1,5.777984619E-1,1.031220566E1,1.034286075E1
5.963507958E0,-4.108955383E-1,5.315446472E-1,1.038600220E1,1.040770947E1
5.973526958E0,-2.760260010E-1,5.703140259E-1,1.040291702E1,1.042219416E1
5.983545958E0,-1.661544800E-1,6.788383484E-1,1.033166519E1,1.035527568E1
5.993565958E0,-7.753875732E-2,8.707392883E-1,1.022987686E1,1.026716026E1
6.003584958E0,-4.640350342E-2,1.091679840E0,1.018003052E1,1.023850280E1
6.013603958E0,-2.514770508E-2,1.328637085E0,1.023586441E1,1.032176483E1
6.023623958E0,3.023712158E-2,1.394799500E0,1.035801041E1,1.045154340E1
6.033642958E0,1.323248291E-1,1.286574554E0,1.059691360E1,1.067554972E1
6.043661958E0,2.513273621E-1,1.145567780E0,1.086994583E1,1.093303313E1
6.053681958E0,3.315605164E-1,8.849597168E-1,1.102756805E1,1.106798732E1
6.063700958E0,4.326004028E-1,4.083508301E-1,1.121722366E1,1.123298715E1
6.073719958E0,5.285508728E-1,-4.086502075E-2,1.126482468E1,1.127729183E1
6.083739958E0,6.650669861E-1,-4.822970581E-1,1.113264954E1,1.116292122E1
6.093758958E0,8.068222046E-1,-8.289761353E-1,1.081411194E1,1.087580712E1
6.103778958E0,9.066645813E-1,-9.586065674E-1,1.033031799E1,1.041424203E1
6.113797958E0,9.162446594E-1,-8.837622070E-1,9.691596222E0,9.774844103E0
6.123816958E0,9.273216248E-1,-6.059399414E-1,9.130413208E0,9.197365599E0
6.133836958E0,8.779243469E-1,-1.929487610E-1,8.542735291E0,8.589895612E0
6.143855958E0,7.557783508E-1,2.820135498E-1,7.857759705E0,7.899058180E0
6.153874958E0,5.388793945E-1,8.045768738E-1,7.321275330E0,7.385039431E0
6.163894958E0,3.767665100E-1,1.278641052E0,7.119345245E0,7.243062382E0
6.173913958E0,3.013233948E-1,1.580862579E0,7.117698669E0,7.297366418E0
6.183932958E0,3.682342529E-1,1.687740326E0,7.309599609E0,7.510946034E0
6.193952958E0,6.068380737E-1,1.542093201E0,7.607929230E0,7.786327186E0
6.203971958E0,9.934840393E-1,1.221609650E0,8.015830994E0,8.169019965E0
6.213991958E0,1.318009186E0,9.517208862E-1,8.363258514E0,8.519801279E0
6.224010958E0,1.525627441E0,7.734416199E-1,8.624165955E0,8.792154994E0
6.234029958E0,1.591191101E0,6.747967529E-1,8.816366272E0,8.984183548E0
6.244049958E0,1.542841644E0,6.245013428E-1,8.856931915E0,9.011970107E0
6.254068958E0,1.406026154E0,5.813909912E-1,8.821006622E0,8.951261523E0
6.264087958E0,1.020577698E0,7.343728638E-1,8.708440704E0,8.798739787E0
6.274107958E0,4.849914551E-1,1.047671356E0,8.425828400E0,8.504552675E0
6.284126958E0,-1.402583313E-1,1.372795258E0,8.117918701E0,8.234369633E0
6.294145958E0,-8.033793640E-1,1.695224762E0,7.810907135E0,8.033024067E0
6.304165458E0,-1.467248840E0,1.991758118E0,7.595355377E0,7.988075041E0
6.314184458E0,-2.144440613E0,2.264341278E0,7.461084595E0,8.086634052E0
6.324203458E0,-2.778372345E0,2.431094513E0,7.446265411E0,8.311223857E0
6.334223458E0,-3.394640808E0,2.465073853E0,7.555089111E0,8.641732858E0
6.344242458E0,-3.911066895E0,2.466720428E0,7.583979034E0,8.882448532E0
6.354262458E0,-4.263883209E0,2.291135559E0,7.723189545E0,9.114694669E0
6.364281458E0,-4.371210022E0,1.973645782E0,7.971373444E0,9.302986043E0
6.374300458E0,-4.217330017E0,1.646276550E0,8.166118469E0,9.337108214E0
6.384320458E0,-3.940705261E0,1.446142731E0,8.418643341E0,9.407127216E0
6.394339458E0,-3.586841125E0,1.403631134E0,8.752449188E0,9.562477525E0
6.404358458E0,-3.257675629E0,1.364861755E0,9.000184021E0,9.668433716E0
6.414378458E0,-2.828817444E0,1.222058716E0,9.368268585E0,9.862053129E0
6.424397458E0,-2.350711670E0,8.875044250E-1,9.918524323E0,1.023184412E1
6.434416458E0,-1.977537689E0,4.122427368E-1,1.075483521E1,1.094290088E1
6.444436458E0,-1.601369934E0,-2.109114075E-1,1.148935776E1,1.160233644E1
6.454455458E0,-1.243613892E0,-1.141376495E0,1.184561691E1,1.196528127E1
6.464474458E0,-9.114546204E-1,-2.197430420E0,1.212463669E1,1.235581907E1
6.474494458E0,-5.291496277E-1,-3.248544617E0,1.242551102E1,1.285404082E1
6.484513458E0,-9.355545044E-2,-4.193230133E0,1.280257690E1,1.347211591E1
6.494533458E0,4.272116089E-1,-4.895868988E0,1.312335983E1,1.401337276E1
6.504552458E0,9.978250122E-1,-5.579647064E0,1.323383011E1,1.439660986E1
6.514571458E0,1.496138763E0,-6.095773773E0,1.319446198E1,1.461132150E1
6.524591458E0,1.933229828E0,-6.313121796E0,1.288116348E1,1.447471095E1
6.534610458E0,2.210603027E0,-6.228098602E0,1.240814713E1,1.405838159E1
6.544629458E0,2.245630188E0,-5.812862091E0,1.186552551E1,1.340234742E1
6.554649458E0,2.208357697E0,-5.310506744E0,1.130868347E1,1.268718438E1
6.564668458E0,2.099084930E0,-4.790039062E0,1.084509750E1,1.204021477E1
6.574687458E0,1.922901306E0,-4.160148926E0,1.039558228E1,1.136100873E1
6.584707458E0,1.751507721E0,-3.508254547E0,1.008318192E1,1.081878860E1
6.594726458E0,1.602268066E0,-2.937491455E0,9.854008484E0,1.040661339E1
6.604745458E0,1.568887482E0,-2.565814362E0,9.692793732E0,1.014864826E1
6.614765458E0,1.597328339E0,-2.342778168E0,9.597142639E0,1.000725808E1
6.624784458E0,1.617985382E0,-2.098186798E0,9.605225830E0,9.963966468E0
6.634804458E0,1.617386627E0,-1.800006866E0,9.822723541E0,1.011641547E1
6.644823458E0,1.610051880E0,-1.526974640E0,1.002764740E1,1.027023033E1
6.654842458E0,1.646575928E0,-1.299597473E0,1.017793488E1,1.039184893E1
6.664862458E0,1.586101685E0,-1.092278595E0,1.031969009E1,1.049784715E1
6.674881458E0,1.453776855E0,-8.376580811E-1,1.045246399E1,1.058627138E1
6.684900458E0,1.293160858E0,-6.078858948E-1,1.060035645E1,1.069623051E1
6.694920458E0,1.074315948E0,-3.849993896E-1,1.070783295E1,1.076847555E1
6.704939458E0,8.081694031E-1,-1.715432739E-1,1.079959213E1,1.083114745E1
6.714958458E0,5.301974487E-1,-1.092727661E-2,1.092892319E1,1.094178188E1
6.724978458E0,2.752775574E-1,1.357676697E-1,1.113279922E1,1.113702964E1
6.734997458E0,5.134323120E-2,2.439926147E-1,1.134341125E1,1.134615122E1
6.745016458E0,-6.676116943E-2,2.275268555E-1,1.155132889E1,1.155376236E1
6.755036458E0,-5.628295898E-2,8.337661743E-2,1.178394516E1,1.178437453E1
6.765055458E0,-5.867797852E-2,-7.259902954E-2,1.201581299E1,1.201617558E1
6.775075458E0,-3.682342529E-2,-2.447410583E-1,1.226848755E1,1.227098370E1
6.785094458E0,-3.008743286E-2,-4.519102478E-1,1.247730331E1,1.248552066E1
6.795113458E0,-9.220825195E-2,-6.515950012E-1,1.260977783E1,1.262693848E1
6.805133458E0,-1.008901978E-1,-8.807684326E-1,1.272054749E1,1.275140228E1
6.815152458E0,-2.020797729E-1,-1.168619843E0,1.275332932E1,1.280835341E1
6.825171458E0,-3.667373657E-1,-1.321452026E0,1.281425262E1,1.288742806E1
6.835191458E0,-6.971003723E-1,-1.436712341E0,1.273865982E1,1.283836225E1
6.845210458E0,-1.109043732E0,-1.527124329E0,1.276710068E1,1.290584931E1
6.855229458E0,-1.385518799E0,-1.611698456E0,1.284553757E1,1.302017932E1
6.865249458E0,-1.706301727E0,-1.781445465E0,1.277174103E1,1.300778161E1
6.875268458E0,-2.046394501E0,-1.776505737E0,1.270707550E1,1.299282382E1
6.885288458E0,-2.388882294E0,-1.731599121E0,1.264480499E1,1.298446331E1
6.895307458E0,-2.796185303E0,-1.464105377E0,1.258732452E1,1.297701797E1
6.905326458E0,-3.281925201E0,-1.068777466E0,1.262534546E1,1.308864646E1
6.915346458E0,-3.744163971E0,-6.562353516E-1,1.266157013E1,1.321986259E1
6.925365458E0,-4.211342468E0,-4.270619202E-1,1.279464340E1,1.347667196E1
6.935384458E0,-4.805157623E0,-3.908372498E-1,1.282443146E1,1.370066917E1
6.945404458E0,-5.522316284E0,-5.034031677E-1,1.268192780E1,1.384126745E1
6.955423458E0,-6.297853546E0,-6.333329773E-1,1.239198074E1,1.391492927E1
6.965442458E0,-7.026538239E0,-8.234376526E-1,1.208646606E1,1.400474745E1
6.975462458E0,-7.484286346E0,-9.877958679E-1,1.174996582E1,1.396610109E1
6.985481458E0,-7.571554871E0,-1.099763031E0,1.141122025E1,1.373877248E1
6.995501458E0,-7.424111481E0,-1.145418091E0,1.105151825E1,1.336283913E1
7.005520458E0,-7.072792053E0,-1.133742371E0,1.068088898E1,1.286044900E1
7.015539458E0,-6.496939545E0,-1.152004395E0,1.028705795E1,1.222132967E1
7.025559458E0,-5.835165710E0,-1.085692291E0,9.899513855E0,1.154245473E1
7.035578458E0,-5.188211060E0,-9.666897583E-1,9.468110962E0,1.083961015E1
7.045597458E0,-4.584965515E0,-8.390052795E-1,9.051976318E0,1.018155754E1
7.055617458E0,-4.003125458E0,-7.048841858E-1,8.711434479E0,9.613062250E0
7.065636458E0,-3.517235870E0,-6.899153137E-1,8.395591278E0,9.128684693E0
7.075655458E0,-3.132535858E0,-6.569837952E-1,8.123157806E0,8.730985131E0
7.085675458E0,-2.820883942E0,-6.303392029E-1,7.916886749E0,8.428037110E0
7.095694458E0,-2.507136383E0,-7.517367554E-1,7.777975616E0,8.206567229E0
7.105714458E0,-2.153421936E0,-9.752220154E-1,7.614665222E0,7.973168157E0
7.115733458E0,-1.786983948E0,-1.109642487E0,7.423363037E0,7.715629388E0
7.125752458E0,-1.329834595E0,-1.176403656E0,7.222181396E0,7.437223254E0
7.135772458E0,-7.394622803E-1,-1.316811676E0,7.117399292E0,7.275862158E0
7.145791458E0,-5.658233643E-2,-1.322948914E0,7.184459839E0,7.305467717E0
7.155810458E0,5.252577209E-1,-1.118773499E0,7.292385406E0,7.396379840E0
7.165830458E0,1.026565247E0,-8.696914673E-1,7.386539612E0,7.508073447E0
7.175849458E0,1.586550751E0,-5.896238708E-1,7.563022614E0,7.750103912E0
7.185868458E0,2.097438354E0,-3.823049927E-1,7.862998810E0,8.146910767E0
7.195888458E0,2.495909729E0,-2.119592285E-1,8.207582245E0,8.581310995E0
7.205907458E0,2.844983826E0,-8.472381592E-2,8.610244904E0,9.068485452E0
7.215926458E0,3.192111969E0,-9.026229858E-2,9.121431885E0,9.664276783E0
7.225946458E0,3.520229645E0,-2.573149109E-1,9.613458710E0,1.024093824E1
7.235965458E0,3.865561523E0,-4.490661621E-1,1.015398468E1,1.087417267E1
7.245985458E0,4.127666473E0,-7.249424744E-1,1.060140427E1,1.139969055E1
7.256004458E0,4.388873291E0,-1.044677582E0,1.090856552E1,1.180467542E1
7.266023458E0,4.565805359E0,-1.302441559E0,1.119611755E1,1.216124915E1
7.276043458E0,4.660708008E0,-1.450483704E0,1.128593079E1,1.229627325E1
7.286062458E0,4.792284393E0,-1.539847870E0,1.126377686E1,1.233733319E1
7.296081458E0,4.849016418E0,-1.589544525E0,1.110181366E1,1.221842373E1
7.306098292E0,4.933740234E0,-1.557511139E0,1.082518890E1,1.199801435E1
7.316117292E0,5.020709381E0,-1.487606506E0,1.053105057E1,1.176110207E1
7.326136292E0,4.989873505E0,-1.319206696E0,1.017254608E1,1.140700827E1
7.336156292E0,5.016218719E0,-1.192420349E0,9.800419922E0,1.107395806E1
7.346175292E0,5.050198059E0,-1.143472137E0,9.414073334E0,1.074415216E1
7.356194292E0,5.008285217E0,-1.052012329E0,9.036259003E0,1.038477865E1
7.366214292E0,4.956792297E0,-1.007554779E0,8.752299500E0,1.010879335E1
7.376233292E0,4.890031128E0,-9.951306152E-1,8.449628906E0,9.813201212E0
7.386253292E0,4.768184509E0,-8.364605713E-1,8.104746094E0,9.440453328E0
7.396272292E0,4.646637268E0,-6.249504089E-1,7.805668030E0,9.105506812E0
7.406291292E0,4.445156250E0,-3.406915283E-1,7.472161560E0,8.701073680E0
7.416311292E0,4.224365387E0,-1.167572021E-2,7.117698669E0,8.276897583E0
7.426330292E0,4.010759583E0,2.992277527E-1,6.839726715E0,7.934581981E0
7.436349292E0,3.797004089E0,7.138655090E-1,6.737489319E0,7.766634171E0
7.446369292E0,3.676055603E0,1.153800659E0,6.858138428E0,7.866301765E0
7.456388292E0,3.502865753E0,1.621128845E0,6.816075897E0,7.833072057E0
7.466407292E0,3.419189758E0,1.885628815E0,6.889722748E0,7.919263487E0
7.476427292E0,3.109783173E0,2.176773376E0,6.901548157E0,7.876576710E0
7.486446292E0,2.689307556E0,2.502346344E0,6.877897339E0,7.797408811E0
7.496466292E0,2.311493225E0,2.670297089E0,7.037166138E0,7.873702733E0
7.506485292E0,1.723665619E0,2.844684448E0,7.333549805E0,8.052589988E0
7.516504292E0,1.089733887E0,2.791694641E0,7.564818878E0,8.136803031E0
7.526524292E0,4.694238281E-1,2.849474487E0,8.340805206E0,8.826601559E0
7.536543292E0,-3.462300110E-1,2.651585999E0,9.024433594E0,9.412289053E0
7.546562292E0,-8.565188599E-1,2.287243652E0,9.392218781E0,9.704580450E0
7.556582292E0,-1.357527008E0,1.988015900E0,9.759405212E0,1.005191907E1
7.566601292E0,-2.015558624E0,1.692081299E0,1.002884491E1,1.036838203E1
7.576620292E0,-2.646047516E0,1.418749695E0,1.044602737E1,1.086894227E1
7.586640292E0,-2.875969391E0,1.717079315E0,1.034139496E1,1.087032709E1
7.596659292E0,-3.267255707E0,1.408720551E0,1.048255142E1,1.106992944E1
7.606679292E0,-3.391197968E0,1.314266968E0,1.054467224E1,1.115426528E1
7.616698292E0,-3.420237579E0,1.331181793E0,1.053838531E1,1.115919509E1
7.626717292E0,-3.331322479E0,1.360520782E0,1.049108368E1,1.109105780E1
7.636737292E0,-3.069217529E0,1.331181793E0,1.043210632E1,1.095540887E1
7.646756292E0,-2.870580597E0,1.443148956E0,1.023376877E1,1.072627312E1
7.656775292E0,-2.467019806E0,1.421444092E0,1.023257126E1,1.062130899E1
7.666795292E0,-2.161804504E0,1.545835419E0,1.003632935E1,1.038224025E1
7.676814292E0,-1.933379517E0,1.681603088E0,1.006970993E1,1.039061131E1
7.686833292E0,-1.721869354E0,1.725611572E0,1.022673340E1,1.051326045E1
7.696853292E0,-1.531614990E0,1.847458191E0,1.045336212E1,1.072528442E1
7.706872292E0,-1.237626343E0,1.757794647E0,1.080498093E1,1.101676785E1
7.716891292E0,-9.493258667E-1,1.523382111E0,1.122081619E1,1.136347784E1
7.726911292E0,-5.777984619E-1,1.247206421E0,1.200338882E1,1.208183422E1
7.736930292E0,-1.333726501E-1,8.397537231E-1,1.309970901E1,1.312727507E1
7.746950292E0,1.270857239E-1,3.336561584E-1,1.391221939E1,1.391680012E1
7.756969292E0,4.240681458E-1,-2.962339783E-1,1.430979263E1,1.431913941E1
7.766988292E0,6.951544189E-1,-1.075064392E0,1.449810104E1,1.455451603E1
7.777008292E0,7.569758606E-1,-1.710493011E0,1.468985229E1,1.480846242E1
7.787027292E0,9.144483948E-1,-2.317181396E0,1.462862961E1,1.483921661E1
7.797046292E0,1.032852173E0,-2.847977600E0,1.435305267E1,1.466928359E1
7.807066292E0,1.144669647E0,-3.185675354E0,1.400607422E1,1.440933417E1
7.817085292E0,1.323996735E0,-3.390000458E0,1.356104965E1,1.404090945E1
7.827104292E0,1.538650360E0,-3.304079132E0,1.308668610E1,1.358476120E1
7.837124292E0,1.632654877E0,-3.037483521E0,1.257639725E1,1.304061486E1
7.847143292E0,1.860930176E0,-2.835104370E0,1.218076996E1,1.264405136E1
7.857163292E0,2.161954193E0,-2.716251526E0,1.210637466E1,1.259429934E1
7.867182292E0,2.300266571E0,-2.449955292E0,1.190489365E1,1.237012530E1
7.877201292E0,2.444716187E0,-2.408940582E0,1.159264297E1,1.209003735E1
7.887221292E0,2.494562531E0,-2.543061676E0,1.151824768E1,1.205653493E1
7.897240292E0,2.486629028E0,-2.702779541E0,1.127156067E1,1.185480582E1
7.907259292E0,2.626138916E0,-2.975811768E0,1.106229584E1,1.175272098E1
7.917279292E0,2.674039307E0,-3.217858429E0,1.083521805E1,1.161494939E1
7.927298292E0,2.597847748E0,-3.203787689E0,1.051488419E1,1.129494834E1
7.937317292E0,2.535876617E0,-3.146157532E0,1.009066635E1,1.086970675E1
7.947337292E0,2.456990662E0,-2.954256592E0,9.602681122E0,1.034291641E1
7.957356292E0,2.311642914E0,-2.655477905E0,9.183103638E0,9.834869002E0
7.967376292E0,2.144141235E0,-2.411185913E0,8.640332336E0,9.223150331E0
7.977395292E0,2.037113800E0,-2.175575867E0,8.152347107E0,8.680076402E0
7.987414292E0,1.934277649E0,-2.004182281E0,7.759114838E0,8.243909249E0
7.997434292E0,1.832788696E0,-1.825753326E0,7.420518951E0,7.858536195E0
8.007453292E0,1.729952545E0,-1.791923676E0,7.365882568E0,7.775599802E0
8.017472292E0,1.606459351E0,-1.794917450E0,7.333849182E0,7.719312413E0
8.027492292E0,1.460063782E0,-1.842668152E0,7.405699768E0,7.769916423E0
8.037511292E0,1.388662262E0,-1.923500061E0,7.491022339E0,7.857712838E0
8.047530292E0,1.245260468E0,-2.075134735E0,7.427105255E0,7.811449947E0
8.057550292E0,1.102158051E0,-2.080074463E0,7.296277313E0,7.666624079E0
8.067569292E0,9.484277344E-1,-1.932930450E0,7.090904388E0,7.410577598E0
8.077588292E0,8.122109985E-1,-1.697170715E0,6.925198975E0,7.176242469E0
8.087608292E0,7.297325134E-1,-1.410217438E0,6.852749634E0,7.034301693E0
8.097627292E0,6.881190491E-1,-1.125808868E0,6.850055237E0,6.975973780E0
8.107647292E0,7.020401001E-1,-9.439370728E-1,6.955585785E0,7.054363976E0
8.117666292E0,7.762857056E-1,-8.210426331E-1,7.183112640E0,7.271439865E0
8.127685292E0,7.059320068E-1,-7.396119690E-1,7.520061951E0,7.589248817E0
8.137705292E0,6.653663635E-1,-6.801855469E-1,7.965984650E0,8.022610312E0
8.147724292E0,7.659571838E-1,-7.676037598E-1,8.509504395E0,8.578319823E0
8.157743292E0,7.563771057E-1,-9.509724426E-1,9.166039124E0,9.246227778E0
8.167763292E0,6.692582703E-1,-1.262774048E0,9.851164398E0,9.954292789E0
8.177782292E0,6.920109558E-1,-1.665586395E0,1.046878006E1,1.062301337E1
8.187801292E0,7.217990112E-1,-2.030826874E0,1.089374634E1,1.110490706E1
8.197821292E0,8.090675354E-1,-2.297871552E0,1.106903183E1,1.133394325E1
8.207840292E0,8.975335693E-1,-2.404150543E0,1.121647522E1,1.150629492E1
8.217860292E0,7.792794800E-1,-2.172133026E0,1.138921600E1,1.162065745E1
8.227879292E0,6.535409546E-1,-1.764830017E0,1.170490952E1,1.185523714E1
8.237898292E0,5.996530151E-1,-1.476679230E0,1.196851135E1,1.207416371E1
8.247918292E0,6.041436768E-1,-1.263821869E0,1.225187210E1,1.233169110E1
8.257937292E0,7.638615417E-1,-1.271156616E0,1.248403931E1,1.257181614E1
8.267956292E0,1.035396881E0,-1.522034912E0,1.265962418E1,1.279276050E1
8.277976292E0,1.265468445E0,-1.720821533E0,1.281185760E1,1.298870018E1
8.287995292E0,1.382525024E0,-1.811682587E0,1.278715897E1,1.298864903E1
8.298014292E0,1.444945221E0,-1.843715973E0,1.260349091E1,1.281932675E1
8.308033542E0,1.432221680E0,-1.780996399E0,1.226205093E1,1.247321531E1
8.318052542E0,1.371298370E0,-1.632804565E0,1.177705948E1,1.196852706E1
8.328072542E0,1.232087860E0,-1.345402222E0,1.125314896E1,1.140006619E1
8.338091542E0,9.994715881E-1,-1.024020538E0,1.067041077E1,1.076592901E1
8.348110542E0,7.132667542E-1,-6.788383484E-1,1.007509872E1,1.012310156E1
8.358130542E0,4.599934387E-1,-2.883004761E-1,9.644593964E0,9.659860447E0
8.368149542E0,1.261875916E-1,-6.436614990E-3,9.195228424E0,9.196096482E0
8.378168542E0,-1.442999268E-1,2.058219910E-1,8.855584717E0,8.859151530E0
8.388188542E0,-4.785548401E-1,3.769161987E-1,8.515491943E0,8.537252696E0
8.398207542E0,-8.020321655E-1,5.243595886E-1,8.284671936E0,8.339903936E0
8.408226542E0,-1.063538361E0,6.454577637E-1,8.212671661E0,8.306365354E0
8.418246542E0,-1.345252533E0,7.584727478E-1,8.203241272E0,8.347344048E0
8.428265542E0,-1.587897949E0,7.795788574E-1,8.269852753E0,8.456927790E0
8.438284542E0,-1.817520447E0,8.232879639E-1,8.418793030E0,8.652008999E0
8.448304542E0,-2.030228119E0,8.470884705E-1,8.572373657E0,8.850139841E0
8.458323542E0,-2.190844116E0,8.161029053E-1,8.712781677E0,9.020996976E0
8.468343542E0,-2.339335327E0,7.403604126E-1,8.781488800E0,9.117848916E0
8.478362542E0,-2.455194397E0,7.021897888E-1,8.814719696E0,9.177163687E0
8.488381542E0,-2.501148834E0,7.158114624E-1,8.897946625E0,9.270468471E0
8.498401542E0,-2.659220123E0,7.177574158E-1,8.934919739E0,9.349835192E0
8.508420542E0,-2.820285187E0,8.126600647E-1,8.972491608E0,9.440340596E0
8.518439542E0,-3.021167450E0,9.571096802E-1,8.943451996E0,9.488353140E0
8.528459542E0,-3.232677612E0,1.072369995E0,8.950936432E0,9.577026937E0
8.538478542E0,-3.447480927E0,1.237177277E0,9.029373322E0,9.743988656E0
8.548497542E0,-3.526666260E0,1.331481171E0,9.271569672E0,1.000860736E1
8.558517542E0,-3.419339447E0,1.199755096E0,9.649982758E0,1.030793198E1
8.568536542E0,-3.144061890E0,9.859996033E-1,1.019484970E1,1.071411596E1
8.578556542E0,-2.885699158E0,6.478527832E-1,1.080887283E1,1.120619047E1
8.588575542E0,-2.652484131E0,4.044589233E-1,1.140912460E1,1.172038324E1
8.598594542E0,-2.360591125E0,2.228865051E-1,1.204021225E1,1.227146201E1
8.608614542E0,-2.008523254E0,4.236190796E-2,1.267653900E1,1.283474196E1
8.618633542E0,-1.649869080E0,-1.806742859E-1,1.308503952E1,1.318988137E1
8.628652542E0,-1.238374786E0,-4.695735168E-1,1.327424606E1,1.334015292E1
8.638672542E0,-8.921447754E-1,-6.072871399E-1,1.316392548E1,1.320809047E1
8.648691542E0,-5.282514954E-1,-6.753955078E-1,1.292083099E1,1.294925026E1
8.658710542E0,-1.121168518E-1,-6.960525513E-1,1.278611115E1,1.280553386E1
8.668730542E0,1.672023010E-1,-5.646258545E-1,1.255633896E1,1.257013950E1
8.678749542E0,4.174818420E-1,-4.049079895E-1,1.229363525E1,1.230738434E1
8.688769542E0,5.571414185E-1,-3.441343689E-1,1.190414520E1,1.192214360E1
8.698788542E0,6.465055847E-1,-3.258723450E-1,1.146121628E1,1.148406029E1
8.708807542E0,6.539900208E-1,-3.073109436E-1,1.095886093E1,1.098265796E1
8.718827542E0,6.655160522E-1,-2.737806702E-1,1.037492523E1,1.039985293E1
8.728846542E0,6.078858948E-1,-1.698966980E-1,9.893675995E0,9.913789126E0
8.738865542E0,6.274951172E-1,-3.442840576E-3,9.414073334E0,9.434963630E0
8.748885542E0,6.536906433E-1,1.564247131E-1,8.962761841E0,8.987929682E0
8.758904542E0,6.370751953E-1,4.728666687E-1,8.541687469E0,8.578455136E0
8.768923542E0,6.948550415E-1,7.631130981E-1,8.238118744E0,8.302515617E0
8.778943542E0,7.526348877E-1,1.002016296E0,8.043673096E0,8.140710829E0
8.788962542E0,8.785231018E-1,1.122964783E0,7.968978424E0,8.095521593E0
8.798981542E0,9.943821716E-1,1.133892059E0,8.045319672E0,8.185455132E0
8.809001542E0,9.695338440E-1,1.172960815E0,8.152047729E0,8.292871344E0
8.819020542E0,9.401948547E-1,1.106349335E0,8.274792480E0,8.401200260E0
8.829040542E0,9.464817810E-1,8.602610779E-1,8.457412720E0,8.553578596E0
8.839059542E0,9.268725586E-1,6.069877625E-1,8.748407593E0,8.818285678E0
8.849078542E0,9.232800293E-1,2.612068176E-1,9.075178070E0,9.125761997E0
8.859098542E0,9.348060608E-1,-4.939727783E-2,9.424551544E0,9.470927846E0
8.869117542E0,1.035396881E0,-1.932481384E-1,9.589957581E0,9.647625508E0
8.879136542E0,1.198108521E0,-3.068618774E-1,9.549541626E0,9.629297664E0
8.889156542E0,1.316661987E0,-4.306544495E-1,9.431437225E0,9.532631860E0
8.899175542E0,1.288520508E0,-5.834866333E-1,9.317075043E0,9.423833037E0
8.909194542E0,1.274300079E0,-8.029302979E-1,9.238488464E0,9.360459757E0
8.919214542E0,1.290915527E0,-1.138682098E0,9.108408966E0,9.269637194E0
8.929233542E0,1.248254242E0,-1.435963898E0,9.079219666E0,9.276441166E0
8.939253542E0,1.110091553E0,-1.420096893E0,9.076824646E0,9.254065274E0
8.949272542E0,9.148974609E-1,-1.299148407E0,9.116641846E0,9.254079235E0
8.959291542E0,8.316705322E-1,-1.210083618E0,9.087153168E0,9.205016618E0
8.969311542E0,7.454498291E-1,-1.068178711E0,8.949589233E0,9.043884600E0
8.979330542E0,6.999444580E-1,-8.824150085E-1,8.803493042E0,8.875250319E0
8.989349542E0,5.852828979E-1,-6.854246521E-1,8.825646973E0,8.871550457E0
8.999369542E0,5.147795105E-1,-5.797444153E-1,8.753347321E0,8.787615766E0
9.009388542E0,5.078938293E-1,-6.379733276E-1,8.908125458E0,8.945371165E0
9.019407542E0,4.134402466E-1,-5.945635986E-1,9.107810211E0,9.136555453E0
9.029427542E0,2.357597351E-1,-5.830375671E-1,9.227710876E0,9.249116903E0
9.039446542E0,1.859133911E-1,-7.086264038E-1,9.504036255E0,9.532230605E0
9.049466542E0,2.142045593E-1,-8.193960571E-1,9.776769104E0,9.813384106E0
9.059485542E0,3.043171692E-1,-8.978329468E-1,9.935439148E0,9.980564313E0
9.069504542E0,4.598437500E-1,-1.037791901E0,9.996212769E0,1.006045417E1
9.079524542E0,6.601272583E-1,-1.198108521E0,1.001552261E1,1.010850757E1
9.089543542E0,8.996292114E-1,-1.299148407E0,9.943073273E0,1.006786101E1
9.099562542E0,1.179696808E0,-1.370998993E0,9.825118561E0,9.990209083E0
9.109582542E0,1.442400513E0,-1.430575104E0,9.711504822E0,9.921713071E0
9.119601542E0,1.711690521E0,-1.492845612E0,9.755363617E0,1.001626636E1
9.129620542E0,1.843416595E0,-1.476679230E0,9.921368408E0,1.019864292E1
9.139640542E0,1.864822083E0,-1.401086426E0,1.001731888E1,1.028529446E1
9.149659542E0,1.878593445E0,-1.370699615E0,9.968670044E0,1.023632323E1
9.159679542E0,1.967059479E0,-1.397942963E0,9.798024902E0,1.009083047E1
9.169698542E0,1.985471191E0,-1.394350433E0,9.539512482E0,9.843201073E0
9.179717542E0,2.021695862E0,-1.311422882E0,9.240733795E0,9.549777233E0
9.189737542E0,1.956730957E0,-1.189875641E0,8.905281372E0,9.195033246E0
9.199756542E0,1.819466400E0,-9.870474243E-1,8.606802063E0,8.852217934E0
9.209775542E0,1.688189392E0,-7.220983887E-1,8.443491669E0,8.640831040E0
9.219795542E0,1.481618958E0,-4.878355408E-1,8.412356415E0,8.555753544E0
9.229814542E0,1.248104553E0,-1.938468933E-1,8.331075439E0,8.426277919E0
9.239833542E0,9.725276184E-1,1.402583313E-1,8.140821075E0,8.199905496E0
9.249853542E0,7.018904114E-1,4.111949158E-1,7.871231689E0,7.913154852E0
9.259872542E0,4.098477173E-1,5.962101746E-1,7.543413391E0,7.578029250E0
9.269891542E0,1.932481384E-1,8.791218567E-1,7.485334167E0,7.539259094E0
9.279911542E0,-1.062789917E-2,1.063538361E0,7.458539886E0,7.533992569E0
9.289930542E0,-3.067121887E-1,1.192120972E0,7.346423035E0,7.448835894E0
9.299950542E0,-5.935157776E-1,1.453028412E0,7.458988953E0,7.622340109E0
9.309969958E0,-7.518864441E-1,1.559457092E0,7.818241882E0,8.007630472E0
9.319988958E0,-8.376580811E-1,1.466500397E0,8.163424072E0,8.336293364E0
9.330008958E0,-9.125024414E-1,1.293310547E0,8.557404785E0,8.702556494E0
9.340027958E0,-1.175954590E0,1.219663696E0,9.044192505E0,9.201514375E0
9.350046958E0,-1.318308563E0,1.247505798E0,9.532626801E0,9.703874582E0
9.360066958E0,-1.354383545E0,1.168919220E0,9.807155914E0,9.969003664E0
9.370085958E0,-1.404080200E0,1.007405090E0,1.002869522E1,1.017649419E1
9.380104958E0,-1.442250824E0,9.135502625E-1,1.024529480E1,1.038656474E1
9.390124958E0,-1.587448883E0,8.027806091E-1,1.038300842E1,1.053429231E1
9.400143958E0,-1.769620056E0,6.463558960E-1,1.055530014E1,1.072211230E1
9.410163958E0,-2.026485901E0,5.900729370E-1,1.067400330E1,1.088067909E1
9.420182958E0,-2.330354004E0,5.691165161E-1,1.077070221E1,1.103460328E1
9.430201958E0,-2.647694092E0,6.259982300E-1,1.084135529E1,1.117752845E1
9.440221958E0,-2.731070709E0,6.727011108E-1,1.104059097E1,1.139324023E1
9.450240958E0,-2.837649078E0,4.706213379E-1,1.114896561E1,1.151404233E1
9.460259958E0,-3.032543793E0,3.722758484E-1,1.122485779E1,1.163324304E1
9.470279958E0,-3.398682404E0,5.071453857E-1,1.117022141E1,1.168683382E1
9.480298958E0,-3.707789612E0,6.156697083E-1,1.124341919E1,1.185500856E1
9.490317958E0,-3.710184631E0,3.900888062E-1,1.156824371E1,1.215491266E1
9.500337958E0,-3.516637115E0,-6.661148071E-2,1.202269867E1,1.252662991E1
9.510356958E0,-3.356021118E0,-5.783972168E-1,1.257984009E1,1.303264354E1
9.520375958E0,-3.206482086E0,-9.867480469E-1,1.292232788E1,1.335072121E1
9.530395958E0,-2.972967682E0,-1.591041412E0,1.297202454E1,1.340311047E1
9.540414958E0,-2.666105804E0,-2.326761475E0,1.289777893E1,1.337440243E1
9.550434958E0,-2.393073578E0,-2.875969391E0,1.280452286E1,1.333993278E1
9.560453958E0,-2.134261780E0,-3.245401154E0,1.258328293E1,1.316915758E1
9.570472958E0,-1.849254456E0,-3.391946411E0,1.220127731E1,1.279828936E1
9.580492958E0,-1.663341064E0,-3.370989990E0,1.171508835E1,1.230339677E1
9.590511958E0,-1.614243164E0,-3.229384460E0,1.129087051E1,1.185404834E1
9.600530958E0,-1.560504913E0,-3.018922119E0,1.094134735E1,1.145696942E1
9.610550958E0,-1.412313080E0,-2.762355652E0,1.050156189E1,1.095025292E1
9.620569958E0,-1.333127747E0,-2.411335602E0,1.021760239E1,1.058258794E1
9.630588958E0,-1.417402496E0,-2.010618896E0,9.989626465E0,1.028806372E1
9.640608958E0,-1.374890900E0,-1.711241455E0,9.759405212E0,1.000323260E1
9.650627958E0,-1.219214630E0,-1.573527832E0,9.637408905E0,9.840839627E0
9.660646958E0,-1.095571747E0,-1.413809967E0,9.546547852E0,9.712657307E0
9.670666958E0,-1.018332367E0,-1.237476654E0,9.413923645E0,9.549361637E0
9.680685958E0,-7.806266785E-1,-1.181642761E0,9.279054108E0,9.386506419E0
9.690705958E0,-6.021977234E-1,-1.106499023E0,9.180858307E0,9.266884128E0
9.700724958E0,-4.221221924E-1,-1.008901978E0,8.917256470E0,8.984071087E0
9.710743958E0,-1.398092651E-1,-9.840536499E-1,8.679700470E0,8.736424238E0
9.720763958E0,1.483415222E-1,-9.680369568E-1,8.515491943E0,8.571622005E0
9.730782958E0,3.486250305E-1,-9.364526367E-1,8.405470734E0,8.464657182E0
9.740801958E0,3.528163147E-1,-9.144483948E-1,8.329877930E0,8.387345322E0
9.750821958E0,4.430786133E-1,-8.202941895E-1,8.323890381E0,8.375938890E0
9.760840958E0,7.506889343E-1,-6.574328613E-1,8.099207611E0,8.160448258E0
9.770859958E0,6.424639893E-1,-6.230044556E-1,7.984096985E0,8.034096041E0
9.780879958E0,4.432283020E-1,-5.909710693E-1,8.165220337E0,8.198568246E0
9.790898958E0,5.137316895E-1,-6.285429382E-1,8.288713531E0,8.328370698E0
9.800917958E0,3.829037476E-1,-6.607260132E-1,8.350834351E0,8.385678774E0
9.810937958E0,1.651066589E-1,-7.234455872E-1,8.566236420E0,8.598316121E0
9.820956958E0,-1.438508606E-1,-8.940907288E-1,8.428223419E0,8.476735298E0
9.830976958E0,-1.730401611E-1,-9.183403015E-1,8.998986511E0,9.047378075E0
9.840995958E0,-3.065625000E-1,-1.092877350E0,8.984317017E0,9.055733748E0
9.851014958E0,-4.480183411E-1,-1.564995575E0,9.067394257E0,9.212359643E0
9.861034958E0,-4.700225830E-1,-1.810335388E0,9.110803986E0,9.300805595E0
9.871053958E0,-4.869374084E-1,-2.002236328E0,9.389225006E0,9.612679365E0
9.881072958E0,-4.572990417E-1,-2.244133301E0,9.636510773E0,9.904927893E0
9.891092958E0,-3.121009827E-1,-2.469863892E0,9.748328247E0,1.006118970E1
9.901111958E0,-1.606159973E-1,-2.675985260E0,9.842482452E0,1.020103698E1
9.911130958E0,-8.532257080E-2,-2.789299622E0,9.830657043E0,1.021906504E1
9.921150958E0,2.978805542E-2,-2.710263977E0,9.781409454E0,1.014999454E1
9.931169958E0,-1.706451416E-2,-2.494113464E0,9.801617432E0,1.011398030E1
9.941188958E0,-1.300794983E-1,-2.062111816E0,9.703271942E0,9.920822154E0
9.951208958E0,-1.811233521E-1,-1.639241180E0,9.678273926E0,9.817785061E0
9.961227958E0,-1.709445190E-1,-1.388512573E0,9.707762604E0,9.808049957E0
9.971247958E0,-6.122268677E-2,-1.354682922E0,9.910890198E0,1.000323241E1
9.981266958E0,1.151106262E-1,-1.491049347E0,1.034603531E1,1.045356041E1
9.991285958E0,1.975891113E-1,-1.604663086E0,1.079016174E1,1.091061756E1
1.000130596E1,1.007405090E-1,-1.701960754E0,1.126587250E1,1.139415210E1
1.001132496E1,2.604583740E-2,-1.869312744E0,1.166254761E1,1.181143620E1
1.002134396E1,1.833686829E-1,-2.085912323E0,1.195982941E1,1.214175332E1
1.003136396E1,3.124003601E-1,-2.364033966E0,1.214694031E1,1.237878869E1
1.004138296E1,4.264631653E-1,-2.540966034E0,1.208362198E1,1.235525392E1
1.005140196E1,5.131329346E-1,-2.655477905E0,1.188513474E1,1.218898257E1
1.006142196E1,5.170248413E-1,-2.721041565E0,1.167437302E1,1.199843186E1
1.007144096E1,4.484674072E-1,-2.714604950E0,1.144160706E1,1.176777698E1
1.008146096E1,3.165916443E-1,-2.606679382E0,1.120015915E1,1.150385034E1
1.009147996E1,2.118095398E-1,-2.401156769E0,1.093266541E1,1.119524854E1
1.010149896E1,1.272354126E-2,-2.109712830E0,1.018482056E1,1.040103937E1
1.011151896E1,-1.341210938E-1,-1.785786438E0,1.062894699E1,1.077875391E1
1.012153796E1,-1.716929626E-1,-1.212478638E0,9.782606964E0,9.858954404E0
1.013155696E1,-4.156855774E-1,-7.619155884E-1,8.866811371E0,8.909189287E0
1.014157696E1,-7.051835632E-1,-1.003213806E0,8.728498993E0,8.814216725E0
1.015159596E1,-3.562591553E-1,-5.057981873E-1,8.229885864E0,8.253106914E0
1.016161496E1,-1.661544800E-1,-1.496887207E-2,8.318950653E0,8.320623255E0
1.017163496E1,-4.810995483E-1,-9.235794067E-2,8.486901398E0,8.501028297E0
1.018165396E1,-6.474037170E-1,1.930984497E-2,8.404722290E0,8.429641820E0
1.019167296E1,-7.593708801E-1,3.040177917E-1,8.612789612E0,8.651544131E0
1.020169296E1,-7.981402588E-1,6.518943787E-1,8.610693970E0,8.672141880E0
1.021171196E1,-1.012195129E0,9.069639587E-1,8.431666260E0,8.540498728E0
1.022173196E1,-1.211281128E0,1.014141083E0,8.321495361E0,8.470122145E0
1.023175096E1,-1.250798950E0,1.133592682E0,8.170010376E0,8.342577535E0
1.024176996E1,-1.296304321E0,1.231788483E0,8.140072632E0,8.334176037E0
1.025178996E1,-1.301094360E0,1.289867706E0,8.216114502E0,8.417906078E0
1.026180896E1,-1.325493622E0,1.379531250E0,8.218509521E0,8.438242623E0
1.027182796E1,-1.395547943E0,1.393751678E0,8.252189484E0,8.484617203E0
1.028184796E1,-1.280886383E0,1.314416656E0,8.447084198E0,8.644165230E0
1.029186696E1,-1.381028137E0,1.446741486E0,8.547375641E0,8.778264634E0
1.030188596E1,-1.867366791E0,1.612895966E0,8.592581635E0,8.939851860E0
1.031190629E1,-2.102677460E0,1.668580170E0,8.909772034E0,9.305345237E0
1.032192529E1,-2.106269989E0,1.564247131E0,8.986861725E0,9.361993699E0
1.033194529E1,-2.420915680E0,1.294208679E0,9.219328308E0,9.619346302E0
1.034196429E1,-2.594853973E0,1.165177002E0,9.621990967E0,1.003362421E1
1.035198329E1,-2.468367004E0,1.096320190E0,9.912836151E0,1.027419458E1
1.036200329E1,-2.506986694E0,9.280700684E-1,1.010668304E1,1.045424978E1
1.037202229E1,-2.665507050E0,7.765850830E-1,1.030666718E1,1.067405267E1
1.038204129E1,-2.809806976E0,7.039860535E-1,1.048225204E1,1.087511929E1
1.039206129E1,-3.053500214E0,6.762936401E-1,1.077998291E1,1.122449412E1
1.040208029E1,-3.280727692E0,5.510041809E-1,1.116273697E1,1.164789579E1
1.041209929E1,-3.357218628E0,3.778143311E-1,1.132455048E1,1.181774530E1
1.042211929E1,-3.371139679E0,5.134323120E-2,1.178768738E1,1.226037490E1
1.043213829E1,-3.126548309E0,-5.963598633E-1,1.251023483E1,1.290879255E1
1.044215729E1,-2.875969391E0,-1.346599731E0,1.302815781E1,1.340960203E1
1.045217729E1,-3.059338074E0,-1.509161682E0,1.357347382E1,1.399558180E1
1.046219629E1,-3.361260223E0,-1.203197937E0,1.404678955E1,1.449337960E1
1.047221629E1,-3.578907623E0,-1.051862640E0,1.414169220E1,1.462540437E1
1.048223529E1,-3.731141052E0,-1.206042023E0,1.385144577E1,1.439578066E1
1.049225429E1,-3.661835175E0,-1.389560394E0,1.324341019E1,1.381042462E1
1.050227429E1,-3.361110535E0,-1.372795258E0,1.255514145E1,1.306955270E1
1.051229329E1,-3.052751770E0,-1.257984009E0,1.172362061E1,1.217970021E1
1.052231229E1,-2.881956940E0,-1.009351044E0,1.101783829E1,1.143316342E1
1.053233229E1,-2.921774139E0,-5.219645691E-1,1.064795746E1,1.105387756E1
1.054235129E1,-3.013533325E0,8.008346558E-2,1.037866745E1,1.080761465E1
1.055237029E1,-2.943329315E0,5.709127808E-1,1.005923172E1,1.049653617E1
1.056239029E1,-2.643203430E0,7.815248108E-1,9.839638367E0,1.021840441E1
1.057240929E1,-2.463127899E0,8.171507263E-1,9.670639801E0,1.001279224E1
1.058242929E1,-2.380350037E0,9.084608459E-1,9.461374969E0,9.798417409E0
1.059244829E1,-2.264041901E0,1.009201355E0,9.115144958E0,9.446175984E0
1.060246729E1,-1.969454498E0,9.595046997E-1,8.634793854E0,8.908370512E0
1.061248729E1,-1.663041687E0,7.867639160E-1,7.976612549E0,8.186027905E0
1.062250629E1,-1.453627167E0,6.264472961E-1,7.353907471E0,7.522328313E0
1.063252529E1,-1.223256226E0,5.370831299E-1,6.921756134E0,7.049505093E0
1.064254529E1,-9.473799133E-1,5.372328186E-1,6.593638458E0,6.682979569E0
1.065256429E1,-8.210426331E-1,6.146218872E-1,6.337221680E0,6.419676759E0
1.066258329E1,-8.307723999E-1,8.050259399E-1,6.186784515E0,6.294009230E0
1.067260329E1,-8.984317017E-1,1.104253693E0,6.186185760E0,6.347869722E0
1.068262229E1,-1.060843964E0,1.421144714E0,6.259233856E0,6.505616856E0
1.069264229E1,-1.111588440E0,1.549877014E0,6.317462769E0,6.599097169E0
1.070266129E1,-1.018332367E0,1.404529266E0,6.343658295E0,6.576602757E0
1.071268029E1,-8.258326721E-1,1.206491089E0,6.653813324E0,6.812551071E0
1.072270029E1,-6.707551575E-1,1.036444702E0,6.769373016E0,6.881027622E0
1.073271929E1,-6.825805664E-1,9.466314697E-1,6.717730408E0,6.818352382E0
1.074273829E1,-8.809181213E-1,9.593550110E-1,7.076234894E0,7.195101045E0
1.075275829E1,-1.157542877E0,1.028211823E0,7.507039032E0,7.665034905E0
1.076277729E1,-1.409319305E0,1.126257935E0,7.833210754E0,8.038272735E0
1.077279629E1,-1.668729858E0,1.261127472E0,8.130342865E0,8.395092432E0
1.078281629E1,-1.855541382E0,1.349743195E0,8.561446381E0,8.863588700E0
1.079283529E1,-2.018851776E0,1.325194244E0,9.045988770E0,9.362788853E0
1.080285429E1,-2.157014465E0,1.240171051E0,9.538165283E0,9.857349167E0
1.081287429E1,-2.304308167E0,1.203197937E0,1.010548553E1,1.043447935E1
1.082289329E1,-2.345023499E0,1.066083069E0,1.060559555E1,1.091395095E1
1.083291229E1,-2.294428711E0,7.979905701E-1,1.102831650E1,1.129269484E1
1.084293229E1,-1.914668427E0,4.707710266E-1,1.121961868E1,1.139155055E1
1.085295129E1,-1.475481720E0,1.035845947E-1,1.111109436E1,1.120911210E1
1.086297129E1,-9.830058289E-1,-5.373825073E-2,1.100750977E1,1.105144604E1
1.087299029E1,-5.077441406E-1,-1.724414062E-1,1.092488159E1,1.093803355E1
1.088300929E1,-1.291813660E-1,-2.104623413E-1,1.072684341E1,1.072968554E1
1.089302929E1,1.600172424E-1,-7.948471069E-2,1.061008621E1,1.061159049E1
1.090304829E1,2.092648315E-1,3.957769775E-1,1.072968750E1,1.073902347E1
1.091306729E1,-5.508544922E-2,9.611512756E-1,1.120659576E1,1.124787246E1
1.092308729E1,-3.561094666E-1,1.527423706E0,1.153965317E1,1.164574739E1
1.093310629E1,-5.303471375E-1,2.034120026E0,1.163186142E1,1.182028394E1
1.094312529E1,-6.632707214E-1,2.259102173E0,1.174322983E1,1.197693272E1
1.095314529E1,-8.026309204E-1,2.188598785E0,1.184995789E1,1.207707261E1
1.096316429E1,-7.887098694E-1,1.974394226E0,1.167497177E1,1.186698200E1
1.097318429E1,-5.162763977E-1,1.735191650E0,1.127455444E1,1.141897584E1
1.098320329E1,-3.195854187E-1,1.446442108E0,1.083491867E1,1.093571178E1
1.099322229E1,-2.058219910E-1,1.193019104E0,1.054542068E1,1.061468580E1
1.100324229E1,-3.891906738E-3,1.070274353E0,1.017089951E1,1.022705721E1
1.101326129E1,1.890568542E-1,1.092877350E0,9.770931244E0,9.833677886E0
1.102328029E1,1.683998108E-1,1.165476379E0,9.572144623E0,9.644306422E0
1.103330029E1,-6.631210327E-2,1.190025330E0,9.455387421E0,9.530210326E0
1.104331929E1,-5.186714172E-1,1.127605133E0,9.297016754E0,9.379500728E0
1.105333829E1,-1.237326965E0,1.070124664E0,9.315428467E0,9.457978237E0
1.106335829E1,-1.921853485E0,1.215622101E0,9.620943146E0,9.886040913E0
1.107337729E1,-2.367476807E0,1.314566345E0,9.780062256E0,1.014803670E1
1.108339729E1,-2.754721527E0,1.503473511E0,9.563612366E0,1.006536660E1
1.109341629E1,-2.855312347E0,1.449435883E0,9.159003754E0,9.702629682E0
1.110343529E1,-2.176024933E0,1.107696533E0,8.951535187E0,9.278580620E0
1.111345529E1,-1.353036346E0,1.135538635E0,9.043294373E0,9.214191688E0
1.112347429E1,-1.475182343E0,1.194515991E0,8.139623566E0,8.358020291E0
1.113349329E1,-1.175505524E0,9.789642334E-1,7.183112640E0,7.344201210E0
1.114351329E1,-2.291734314E-1,1.149459686E0,6.578669586E0,6.682265451E0
1.115353229E1,2.176473999E-1,1.732347565E0,6.151607666E0,6.394581718E0
1.116355129E1,3.683839417E-1,2.276915131E0,6.564449158E0,6.957876255E0
1.117357129E1,4.469705200E-1,3.162024536E0,7.590265961E0,8.234702130E0
1.118359029E1,1.805245972E-1,3.956721954E0,9.688303070E0,1.046668305E1
1.119361029E1,-2.752775574E-1,4.062402191E0,1.453567291E1,1.509518719E1
1.120362929E1,-3.641926575E-1,4.441563721E0,1.325044556E1,1.397978655E1
1.121364829E1,-6.791377258E-1,5.010829926E0,9.636211395E0,1.088238093E1
1.122366829E1,-7.458988953E-1,5.152884521E0,9.702972565E0,1.101164205E1
1.123368729E1,3.040177917E-1,4.541256409E0,1.076097244E1,1.168391906E1
1.124370629E1,1.504521332E0,3.540287933E0,1.085078568E1,1.151246163E1
1.125372629E1,8.922944641E-1,2.681074677E0,1.038944504E1,1.076684350E1
1.126374529E1,-3.195854187E-1,2.350711670E0,1.022972717E1,1.050120461E1
1.127376429E1,-6.288423157E-1,1.812281342E0,1.038899597E1,1.056461280E1
1.128378429E1,-5.834866333E-1,1.242416382E0,1.037267990E1,1.046310391E1
1.129380329E1,-2.432441711E-1,9.737251282E-1,1.043045975E1,1.047863535E1
1.130382308E1,6.209088135E-1,8.030799866E-1,1.043974045E1,1.048897735E1
1.131384208E1,1.400637360E0,8.229885864E-1,1.054302567E1,1.066744981E1
1.132386108E1,1.690434723E0,1.129551086E0,1.069720505E1,1.088869373E1
1.133388108E1,1.409019928E0,1.476379852E0,1.084928879E1,1.103956982E1
1.134390008E1,5.245092773E-1,1.617536316E0,1.104448288E1,1.117462016E1
1.135391908E1,-2.863545227E-1,1.688638458E0,1.104912323E1,1.118108326E1
1.136393908E1,-4.520599365E-2,1.751208344E0,1.078866486E1,1.092996174E1
1.137395808E1,3.894900513E-1,1.731299744E0,1.066891388E1,1.081549003E1
1.138397808E1,-1.948947144E-1,1.805395660E0,1.082938019E1,1.098056978E1
1.139399708E1,-6.451583862E-1,1.830243988E0,1.144849274E1,1.161180470E1
1.140401608E1,-3.815565491E-1,1.618434448E0,1.182930084E1,1.194559642E1
1.141403608E1,-4.251159668E-2,1.256636810E0,1.172601562E1,1.179323474E1
1.142405508E1,-1.270857239E-1,1.086141357E0,1.121408020E1,1.126727334E1
1.143407408E1,-3.718267822E-1,1.294807434E0,1.073073532E1,1.081496472E1
1.144409408E1,-5.014572144E-1,1.556463318E0,1.062505508E1,1.075015502E1
1.145411308E1,-4.517605591E-1,1.545985107E0,1.056038956E1,1.068250837E1
1.146413208E1,-4.182302856E-1,1.335522766E0,1.065708847E1,1.074858466E1
1.147415208E1,-5.608836365E-1,1.178349609E0,1.053928345E1,1.061977372E1
1.148417108E1,-9.048683167E-1,1.031804352E0,1.007809250E1,1.017110394E1
1.149419108E1,-1.204245758E0,9.978250122E-1,9.722731476E0,9.847708868E0
1.150421008E1,-1.283730469E0,9.728269958E-1,9.437125397E0,9.573593475E0
1.151422908E1,-1.315015411E0,8.629554749E-1,9.187145233E0,9.320815158E0
1.152424908E1,-1.460812225E0,8.785231018E-1,8.800349579E0,8.963923689E0
1.153426808E1,-1.531465302E0,9.428892517E-1,8.542136536E0,8.729405633E0
1.154428808E1,-1.556313629E0,9.207353210E-1,8.351433105E0,8.544957610E0
1.155430708E1,-1.523980865E0,9.620494080E-1,8.016130371E0,8.216228019E0
1.156432608E1,-1.415157166E0,9.508227539E-1,7.756570129E0,7.941732423E0
1.157434608E1,-1.156794434E0,8.925938416E-1,7.790399780E0,7.926236551E0
1.158436508E1,-9.283694458E-1,9.470805359E-1,7.764653320E0,7.877097978E0
1.159438408E1,-7.743397522E-1,9.574090576E-1,7.745193787E0,7.842465234E0
1.160440408E1,-5.495072937E-1,8.821156311E-1,7.925269318E0,7.993120793E0
1.161442308E1,-4.269122314E-1,9.029223633E-1,8.147557068E0,8.208544878E0
1.162444308E1,-2.893482971E-1,9.672885132E-1,8.350235596E0,8.411052491E0
1.163446208E1,-2.977308655E-1,1.037043457E0,8.541837158E0,8.609708754E0
1.164448108E1,-2.710862732E-1,1.078357544E0,8.785979462E0,8.856058822E0
1.165450108E1,-2.960842896E-1,9.755213928E-1,9.049730988E0,9.106971991E0
1.166452008E1,-4.393363953E-1,1.049916687E0,9.286837921E0,9.356318725E0
1.167453908E1,-4.287084961E-1,1.082399139E0,9.485175476E0,9.556355617E0
1.168455908E1,-4.351451111E-1,1.056353302E0,9.585466919E0,9.653310811E0
1.169457808E1,-4.090992737E-1,1.099164276E0,9.665251007E0,9.736149205E0
1.170459808E1,-3.785627747E-1,1.133742371E0,9.738149414E0,9.811230073E0
1.171461708E1,-2.930905151E-1,1.180894318E0,9.780211945E0,9.855605467E0
1.172463608E1,-2.942880249E-1,1.255888367E0,9.756112061E0,9.841015373E0
1.173465608E1,-1.842668152E-1,1.326990509E0,9.919572144E0,1.000963384E1
1.174467508E1,-3.682342529E-2,1.361119537E0,1.016655853E1,1.025733468E1
1.175469508E1,3.772155762E-2,1.403182068E0,1.025322830E1,1.034886629E1
1.176471408E1,3.757186890E-2,1.470092926E0,1.038420593E1,1.048781759E1
1.177473308E1,1.064286804E-1,1.467248840E0,1.049258057E1,1.059520614E1
1.178475308E1,1.422042847E-1,1.373394012E0,1.046982788E1,1.056047958E1
1.179477208E1,1.377136230E-1,1.261127472E0,1.047925827E1,1.055576911E1
1.180479108E1,1.207987976E-1,1.202299805E0,1.043375290E1,1.050349069E1
1.181481108E1,3.218307495E-2,1.150956573E0,1.035786072E1,1.042166088E1
1.182483008E1,8.083190918E-3,1.056502991E0,1.037911652E1,1.043275244E1
1.183485008E1,-1.107696533E-2,1.097517700E0,1.042462189E1,1.048224257E1
1.184486908E1,-6.616241455E-2,1.164278870E0,1.037567368E1,1.044100220E1
1.185488808E1,-9.969268799E-2,1.331630859E0,1.027089157E1,1.035733523E1
1.186490808E1,-3.757186890E-2,1.536405029E0,1.024394760E1,1.035859134E1
1.187492708E1,7.095245361E-2,1.517993317E0,1.022688309E1,1.033917190E1
1.188494708E1,1.432521057E-1,1.640588379E0,1.039109161E1,1.052078116E1
1.189496608E1,1.812730408E-1,1.751358032E0,1.060589493E1,1.075105214E1
1.190498508E1,1.859133911E-1,1.845961304E0,1.080273560E1,1.096089564E1
1.191500508E1,2.631527710E-1,1.731299744E0,1.108849136E1,1.122592040E1
1.192502408E1,3.341052246E-1,1.199455719E0,1.143576920E1,1.150335331E1
1.193504308E1,3.619473267E-1,7.476951599E-1,1.152932465E1,1.155921194E1
1.194506308E1,3.350033569E-1,4.096980286E-1,1.138996445E1,1.140225284E1
1.195508208E1,2.604583740E-1,1.895059204E-1,1.100257004E1,1.100728388E1
1.196510208E1,1.519340515E-1,2.213896179E-1,1.059302170E1,1.059642421E1
1.197512108E1,9.325607300E-2,2.909948730E-1,1.030067963E1,1.030521108E1
1.198514008E1,1.538800049E-1,3.721261597E-1,1.011296997E1,1.012098407E1
1.199516008E1,2.478845215E-1,5.140310669E-1,9.866133270E0,9.882624165E0
1.200517908E1,1.847158813E-1,8.075706482E-1,9.493707733E0,9.529783672E0
1.201519908E1,1.945953369E-1,1.077908478E0,9.251361694E0,9.315978061E0
1.202521808E1,2.103126526E-1,1.179696808E0,9.085356903E0,9.164039831E0
1.203523708E1,2.276765442E-1,1.332079926E0,8.906029816E0,9.007976499E0
1.204525708E1,3.411405945E-1,1.448537750E0,8.872798920E0,8.996732695E0
1.205527608E1,5.087919617E-1,1.567839661E0,8.834179230E0,8.986640814E0
1.206529608E1,6.489006042E-1,1.690434723E0,8.735234985E0,8.920928864E0
1.207531508E1,7.387138367E-1,1.743125153E0,8.639284515E0,8.844287443E0
1.208533408E1,8.005352783E-1,1.812281342E0,8.506061554E0,8.733745105E0
1.209535408E1,8.171507263E-1,1.873504028E0,8.442743225E0,8.686637199E0
1.210537308E1,7.761360168E-1,2.008972321E0,8.302035828E0,8.576838333E0
1.211539208E1,6.589297485E-1,2.097288666E0,8.119265900E0,8.411616189E0
1.212541208E1,4.725672913E-1,2.203417969E0,8.062234497E0,8.371260101E0
1.213543108E1,3.008743286E-1,2.290686493E0,7.968379669E0,8.296556185E0
1.214545108E1,1.856140137E-1,2.382894745E0,7.878865814E0,8.233417665E0
1.215547008E1,9.415420532E-2,2.508633270E0,7.831564178E0,8.224080701E0
1.216548908E1,2.664459229E-2,2.654729462E0,7.935148773E0,8.367489737E0
1.217550908E1,2.709365845E-2,2.739303589E0,8.082592163E0,8.534214334E0
1.218552808E1,1.092727661E-2,2.770738220E0,8.216713257E0,8.671302465E0
1.219554808E1,3.128494263E-2,2.832559662E0,8.456215210E0,8.918068662E0
1.220556708E1,4.700225830E-2,2.846630402E0,8.607999573E0,9.066596412E0
1.221558608E1,4.790039063E-2,2.856210480E0,8.741072845E0,9.196009311E0
1.222560608E1,2.559677124E-2,2.839295654E0,8.860374756E0,9.304219248E0
1.223562508E1,-1.796264648E-2,2.815644836E0,8.958420868E0,9.390499611E0
1.224564508E1,-2.050735474E-2,2.836750946E0,9.123527527E0,9.554388050E0
1.225566408E1,-4.909790039E-2,2.884801025E0,9.279353485E0,9.717555694E0
1.226568308E1,-8.936416626E-2,3.030897217E0,9.368268585E0,9.846764960E0
1.227570308E1,-5.837860107E-2,3.130589905E0,9.514364777E0,1.001634356E1
1.228572208E1,-5.463638306E-2,3.219804382E0,9.685009918E0,1.020634815E1
1.229574208E1,-3.772155762E-2,3.293002167E0,9.787696381E0,1.032687206E1
1.230576092E1,3.682342529E-2,3.338657227E0,9.932295685E0,1.047847726E1
1.231577992E1,3.442840576E-2,3.382066956E0,1.005698639E1,1.061049186E1
1.232579992E1,4.505630493E-2,3.488795013E0,1.013138168E1,1.071534486E1
1.233581892E1,6.047424316E-2,3.451522522E0,1.023511597E1,1.080158617E1
1.234583792E1,1.257385254E-2,3.373534698E0,1.030636780E1,1.084445073E1
1.235585792E1,-4.700225830E-2,3.303330688E0,1.037657181E1,1.088978629E1
1.236587692E1,-1.809736633E-1,3.192561035E0,1.041234741E1,1.089229893E1
1.237589692E1,-5.062472534E-1,3.458258514E0,1.022284149E1,1.080381074E1
1.238591592E1,-8.560697937E-1,3.768263855E0,1.014200958E1,1.085324958E1
1.239593492E1,-9.611512756E-1,3.703298950E0,1.033061737E1,1.101634650E1
1.240595492E1,-9.274713135E-1,3.774251404E0,1.044991928E1,1.114925960E1
1.241597392E1,-8.852590942E-1,3.965403900E0,1.069061874E1,1.143667088E1
1.242599392E1,-8.539741516E-1,4.093687134E0,1.077055252E1,1.155388886E1
1.243601292E1,-6.906637573E-1,4.132007446E0,1.081890198E1,1.160168703E1
1.244603192E1,-3.694317627E-1,3.805536346E0,1.103625000E1,1.167978599E1
1.245605192E1,-1.197509766E-3,3.256627808E0,1.136601425E1,1.182336272E1
1.246607092E1,3.203338623E-1,2.589016113E0,1.152932465E1,1.182078445E1
1.247609092E1,4.246669006E-1,1.851050720E0,1.134356094E1,1.150143929E1
1.248610992E1,4.831951904E-1,1.351389771E0,1.103490280E1,1.112783949E1
1.249612892E1,3.905378723E-1,1.103355560E0,1.061981598E1,1.068411928E1
1.250614892E1,2.966830444E-1,1.021026764E0,1.017509079E1,1.023049310E1
1.251616792E1,2.029779053E-1,1.075812836E0,9.720935211E0,9.782390028E0
1.252618792E1,3.712280273E-2,1.194665680E0,9.320817261E0,9.397139916E0
1.253620692E1,-1.046324158E-1,1.243464203E0,8.943002930E0,9.029642992E0
1.254622592E1,-5.029541016E-1,1.349144440E0,8.760831757E0,8.878362834E0
1.255624592E1,-7.957452393E-1,1.450633392E0,8.734037476E0,8.889373338E0
1.256626492E1,-9.479786682E-1,1.546134796E0,8.532706146E0,8.723317634E0
1.257628492E1,-9.849517822E-1,1.619631958E0,8.439599762E0,8.649866001E0
1.258630392E1,-8.735833740E-1,1.624421997E0,8.362360382E0,8.563350156E0
1.259632292E1,-7.185058594E-1,1.593885498E0,8.291856995E0,8.474173356E0
1.260634292E1,-5.096900940E-1,1.541195068E0,8.259524231E0,8.417529730E0
1.261636192E1,-2.282752991E-1,1.447938995E0,8.315807190E0,8.444008892E0
1.262638192E1,3.323089600E-2,1.382375336E0,8.341403961E0,8.455240145E0
1.263640092E1,1.591191101E-1,1.379082184E0,8.340356140E0,8.455100656E0
1.264641992E1,2.173480225E-1,1.435963898E0,8.308023376E0,8.434007642E0
1.265643992E1,2.860551453E-1,1.470392303E0,8.235424347E0,8.370549280E0
1.266645892E1,2.679428101E-1,1.622476044E0,8.069419556E0,8.235274970E0
1.267647892E1,2.423460388E-1,1.811981964E0,7.894732819E0,8.103629836E0
1.268649792E1,2.622546387E-1,1.913470917E0,7.809110870E0,8.044399358E0
1.269651692E1,2.275268555E-1,2.095791779E0,7.787106628E0,8.067412305E0
1.270653692E1,2.441423035E-1,2.289189606E0,7.843688965E0,8.174561217E0
1.271655592E1,3.200344849E-1,2.370470581E0,7.999065857E0,8.349048295E0
1.272657592E1,4.052073669E-1,2.508034515E0,8.197403412E0,8.582065767E0
1.273659492E1,5.164260864E-1,2.538720703E0,8.456065521E0,8.844028653E0
1.274661392E1,5.882766724E-1,2.578088837E0,8.719367981E0,9.111530578E0
1.275663392E1,7.111711121E-1,2.528242493E0,9.003177795E0,9.378431898E0
1.276665292E1,7.683522034E-1,2.426454163E0,9.251062317E0,9.594800618E0
1.277667292E1,7.099736023E-1,2.423909454E0,9.398505707E0,9.731973545E0
1.278669192E1,6.743476868E-1,2.455044708E0,9.461524658E0,9.798083393E0
1.279671092E1,6.159690857E-1,2.454445953E0,9.462123413E0,9.794667036E0
1.280673092E1,4.897814941E-1,2.479593658E0,9.403595123E0,9.737344190E0
1.281674992E1,4.049079895E-1,2.566862183E0,9.335037689E0,9.689977327E0
1.282676992E1,3.805087280E-1,2.641257477E0,9.367819519E0,9.740486153E0
1.283678892E1,3.692820740E-1,2.739752655E0,9.363478546E0,9.763060194E0
1.284680792E1,4.668791199E-1,2.772384796E0,9.449549561E0,9.858908685E0
1.285682792E1,6.267466736E-1,2.797682190E0,9.554930420E0,9.975797329E0
1.286684692E1,7.478448486E-1,2.837499390E0,9.819580078E0,1.024865004E1
1.287686692E1,8.244854736E-1,2.900817719E0,9.936337280E0,1.038389707E1
1.288688592E1,9.141490173E-1,2.928061066E0,1.008737320E1,1.054344859E1
1.289690492E1,8.722361755E-1,3.095113678E0,1.014215927E1,1.063973305E1
1.290692492E1,7.491920471E-1,3.365002441E0,1.030427216E1,1.086565943E1
1.291694392E1,7.643106079E-1,3.244053955E0,1.060604462E1,1.111738455E1
1.292696392E1,8.755293274E-1,3.009791107E0,1.097951797E1,1.141819640E1
1.293698292E1,1.074765015E0,2.746638336E0,1.145088776E1,1.182463413E1
1.294700192E1,1.287772064E0,2.502645721E0,1.178783707E1,1.211918707E1
1.295702192E1,1.463356934E0,2.316283264E0,1.188902664E1,1.220063671E1
1.296704092E1,1.654509430E0,2.003284149E0,1.194770462E1,1.222694543E1
1.297706092E1,1.888772278E0,1.695224762E0,1.192495193E1,1.219203537E1
1.298707992E1,2.026336212E0,1.545685730E0,1.169922134E1,1.197359440E1
1.299709892E1,2.039808197E0,1.608854370E0,1.133203491E1,1.162601587E1
1.300711892E1,1.937121735E0,1.779050446E0,1.097233292E1,1.128315340E1
1.301713792E1,1.861079865E0,1.913021851E0,1.057700500E1,1.090854279E1
1.302715792E1,1.756597137E0,2.101030884E0,1.015024246E1,1.051320057E1
1.303717692E1,1.777403870E0,2.320923615E0,9.842781830E0,1.026772638E1
1.304719592E1,1.847308502E0,2.398761749E0,9.670490112E0,1.013336004E1
1.305721592E1,1.873204651E0,2.420316925E0,9.495953064E0,9.976971197E0
1.306723492E1,1.948498077E0,2.418370972E0,9.335337067E0,9.838377969E0
1.307725492E1,2.121538239E0,2.319277039E0,9.344917145E0,9.859383699E0
1.308727392E1,2.206561432E0,2.242636414E0,9.262139282E0,9.781899382E0
1.309729292E1,2.208956451E0,2.132914581E0,9.142687683E0,9.644560710E0
1.310731292E1,2.175426178E0,2.009870453E0,8.956175537E0,9.433193444E0
1.311733192E1,2.117796021E0,1.906884613E0,8.729247437E0,9.182648296E0
1.312735192E1,2.058070221E0,1.886826324E0,8.494236145E0,8.941354165E0
1.313737092E1,2.027683411E0,1.891017609E0,8.242609406E0,8.696439353E0
1.314738992E1,1.981878662E0,1.889969788E0,7.967631226E0,8.425139535E0
1.315740992E1,1.908680878E0,1.935624847E0,7.748636627E0,8.211642699E0
1.316742892E1,1.843416595E0,1.963616638E0,7.636370087E0,8.097414596E0
1.317744892E1,1.732497253E0,2.029928741E0,7.507039032E0,7.967295178E0
1.318746792E1,1.603465576E0,2.135608978E0,7.275919647E0,7.750544128E0
1.319748692E1,1.608105927E0,2.185904388E0,7.249724121E0,7.740974260E0
1.320750692E1,1.552122345E0,2.230661316E0,7.158863068E0,7.657300706E0
1.321752592E1,1.450334015E0,2.345023499E0,7.073989563E0,7.592360127E0
1.322754592E1,1.375489655E0,2.483186188E0,7.069349213E0,7.617997356E0
1.323756492E1,1.268162842E0,2.640509033E0,7.009922791E0,7.597337855E0
1.324758392E1,1.173260193E0,2.805316315E0,6.951394501E0,7.587372708E0
1.325760392E1,9.864486694E-1,3.104693756E0,6.882238312E0,7.614289755E0
1.326762292E1,7.036866760E-1,3.462300110E0,6.810537415E0,7.672425748E0
1.327764292E1,4.363426208E-1,3.673061829E0,6.761589203E0,7.707195769E0
1.328766192E1,2.222877502E-1,3.828289032E0,6.666237488E0,7.690509151E0
1.329768092E1,1.225950623E-1,3.901786194E0,6.660100250E0,7.719838107E0
1.330770108E1,1.586700439E-1,3.845054169E0,6.803352356E0,7.816343200E0
1.331772008E1,2.281256104E-1,3.790118408E0,6.819069672E0,7.804918323E0
1.332774008E1,3.281176758E-1,3.775299225E0,7.043453064E0,7.998173323E0
1.333775908E1,4.496649170E-1,3.731739807E0,7.433691559E0,8.329937018E0
1.334777808E1,5.051994324E-1,3.701203308E0,7.802823944E0,8.650907114E0
1.335779808E1,5.117857361E-1,3.628005524E0,8.352181549E0,9.120487122E0
1.336781708E1,4.881349182E-1,3.605402527E0,8.848249969E0,9.567064890E0
1.337783708E1,4.656816101E-1,3.489244080E0,9.421857147E0,1.005798567E1
1.338785608E1,4.131408691E-1,3.343746643E0,9.969418488E0,1.052333749E1
1.339787608E1,4.429289246E-1,3.198698273E0,1.038465500E1,1.087515131E1
1.340789508E1,4.673281860E-1,2.981200562E0,1.078417419E1,1.119840906E1
1.341791408E1,4.153862000E-1,2.889141998E0,1.092982132E1,1.131285469E1
1.342793408E1,2.727328491E-1,3.193159790E0,1.092533066E1,1.138567093E1
1.343795308E1,1.490899658E-1,3.578159180E0,1.106409210E1,1.162925556E1
1.344797308E1,1.793270874E-1,3.710484009E0,1.152917496E1,1.211287435E1
1.345799208E1,3.387455750E-1,3.923640747E0,1.199919754E1,1.262895272E1
1.346801108E1,5.998027039E-1,3.971391449E0,1.260289215E1,1.322741864E1
1.347803108E1,1.063538361E0,3.702251129E0,1.320029984E1,1.375084336E1
1.348805008E1,1.521436157E0,3.216810608E0,1.366568207E1,1.412138466E1
1.349807008E1,1.894310760E0,2.618055725E0,1.394709686E1,1.431656872E1
1.350808908E1,2.184108124E0,1.848056946E0,1.398511780E1,1.427477364E1
1.351810808E1,2.181264038E0,1.050665131E0,1.380459320E1,1.401529891E1
1.352812808E1,1.963317261E0,5.447172546E-1,1.334130661E1,1.349599176E1
1.353814708E1,1.626966705E0,2.766247559E-1,1.278880554E1,1.289484739E1
1.354816708E1,1.316661987E0,1.546284485E-1,1.239242981E1,1.246313866E1
1.355818608E1,1.097667389E0,1.996847534E-1,1.195967972E1,1.201160633E1
1.356820508E1,1.003662872E0,3.215313721E-1,1.141271713E1,1.146127541E1
1.357822508E1,1.097517700E0,3.918850708E-1,1.085138443E1,1.091378317E1
1.358824408E1,1.447489929E0,2.824626160E-1,1.041534119E1,1.051923687E1
1.359826408E1,1.721719666E0,2.489323425E-1,9.959089966E0,1.010988422E1
1.360828308E1,1.937421112E0,2.059716797E-1,9.586963806E0,9.782939227E0
1.361830208E1,2.157912598E0,8.786727905E-2,9.567803650E0,9.808525583E0
1.362832208E1,2.182311859E0,-5.688171387E-3,9.655970306E0,9.899509077E0
1.363834108E1,2.239343262E0,-1.221459961E-1,9.809850311E0,1.006293899E1
1.364836108E1,2.308349762E0,-5.063969421E-1,9.929002533E0,1.020637094E1
1.365838008E1,2.268831940E0,-9.262738037E-1,9.979297943E0,1.027579530E1
1.366839908E1,2.216889954E0,-1.167122955E0,1.001776794E1,1.032629903E1
1.367841908E1,2.085163879E0,-1.349144440E0,9.912387085E0,1.021878255E1
1.368843808E1,1.946252747E0,-1.372046814E0,9.733509064E0,1.002055941E1
1.369845808E1,1.752106476E0,-1.257385254E0,9.558522949E0,9.798788484E0
1.370847708E1,1.507964172E0,-1.014141083E0,9.368717651E0,9.543338436E0
1.371849608E1,1.353335724E0,-7.084767151E-1,9.220675507E0,9.346352959E0
1.372851608E1,1.262025604E0,-4.869374084E-1,9.108408966E0,9.208307692E0
1.373853508E1,1.257984009E0,-3.971241760E-1,9.184899902E0,9.279149616E0
1.374855508E1,1.285975800E0,-4.183799744E-1,9.354048157E0,9.451295809E0
1.375857408E1,1.383722534E0,-5.794450378E-1,9.515262909E0,9.632791539E0
1.376859308E1,1.483564911E0,-8.819659424E-1,9.640252991E0,9.793533912E0
1.377861308E1,1.498982849E0,-1.182241516E0,9.808203735E0,9.992272269E0
1.378863208E1,1.527423706E0,-1.483714600E0,9.964029694E0,1.018902939E1
1.379865208E1,1.489552460E0,-1.777104492E0,9.992919617E0,1.025842626E1
1.380867108E1,1.390308838E0,-1.961371307E0,9.931547241E0,1.021839355E1
1.381869108E1,1.260528717E0,-2.114802246E0,9.863887939E0,1.016649431E1
1.382871008E1,1.033301239E0,-2.119741974E0,9.774374084E0,1.005482005E1
1.383872908E1,7.402107239E-1,-1.943408661E0,9.610165558E0,9.832600429E0
1.384874908E1,5.385800171E-1,-1.832788696E0,9.556876373E0,9.745925757E0
1.385876808E1,3.092568970E-1,-1.771865387E0,9.415570221E0,9.585828569E0
1.386878808E1,1.712438965E-1,-1.816322937E0,9.372759247E0,9.548663225E0
1.387880708E1,1.570234680E-1,-1.916913757E0,9.529932404E0,9.722079322E0
1.388882608E1,8.502319336E-2,-1.986369324E0,9.571096802E0,9.775417435E0
1.389884608E1,1.772314453E-1,-2.055525513E0,9.654473419E0,9.872459325E0
1.390886508E1,3.333567810E-1,-2.252964935E0,9.708061981E0,9.971632022E0
1.391888508E1,4.364923096E-1,-2.465971985E0,9.783056030E0,1.009850131E1
1.392890408E1,4.093986511E-1,-2.398013306E0,9.869576111E0,1.016496963E1
1.393892308E1,3.432362366E-1,-2.251318359E0,9.821076965E0,1.008165652E1
1.394894308E1,3.351530457E-1,-2.100132751E0,9.852661285E0,1.007957437E1
1.395896208E1,3.424877930E-1,-1.885628815E0,9.948162689E0,1.013108261E1
1.396898208E1,4.471202087E-1,-1.609303436E0,1.013662079E1,1.027330789E1
1.397900108E1,5.403762817E-1,-1.259181519E0,1.024903702E1,1.034022748E1
1.398902008E1,7.155120850E-1,-9.207353210E-1,1.042791504E1,1.049290823E1
1.399904008E1,9.301657104E-1,-6.225553894E-1,1.067385361E1,1.073237785E1
1.400905908E1,1.113085327E0,-3.788621521E-1,1.089958420E1,1.096282040E1
1.401907908E1,1.218915253E0,-1.754351807E-1,1.106738525E1,1.113568805E1
1.402909808E1,1.424886932E0,-5.688171387E-3,1.137724091E1,1.146612165E1
1.403911708E1,1.531315613E0,2.619552612E-2,1.163425644E1,1.173462980E1
1.404913708E1,1.585353241E0,-1.032852173E-2,1.189651108E1,1.200168436E1
1.405915608E1,1.700014801E0,-1.808239746E-1,1.224064545E1,1.235945584E1
1.406917608E1,1.853745117E0,-4.334985352E-1,1.257819351E1,1.272144819E1
1.407919508E1,1.923200684E0,-7.562274170E-1,1.280631912E1,1.297198482E1
1.408921508E1,2.014959869E0,-1.104553070E0,1.293609924E1,1.313859827E1
1.409923408E1,2.066452789E0,-1.409468994E0,1.281320480E1,1.305507745E1
1.410925308E1,2.041903839E0,-1.541943512E0,1.251891678E1,1.277772430E1
1.411927308E1,1.969304810E0,-1.520238647E0,1.218810471E1,1.243942054E1
1.412929208E1,1.858385468E0,-1.328188019E0,1.175101364E1,1.197096494E1
1.413931208E1,1.724414063E0,-9.707313538E-1,1.122530685E1,1.139839626E1
1.414933108E1,1.575024719E0,-6.691085815E-1,1.065065186E1,1.078725146E1
1.415935008E1,1.448238373E0,-3.088078308E-1,1.015084122E1,1.025828124E1
1.416937008E1,1.286424866E0,1.673519897E-1,9.729766846E0,9.815867689E0
1.417938908E1,1.135838013E0,5.065466309E-1,9.347611542E0,9.429981920E0
1.418940908E1,1.009201355E0,7.852670288E-1,9.045090637E0,9.135031271E0
1.419942808E1,8.807684326E-1,1.025068359E0,8.890761566E0,8.992894940E0
1.420944708E1,8.863069153E-1,1.066083069E0,9.004375305E0,9.110480102E0
1.421946708E1,9.656419373E-1,8.855584717E-1,9.221873016E0,9.314484424E0
1.422948608E1,1.058448944E0,6.776408386E-1,9.396709442E0,9.480382883E0
1.423950608E1,1.238973541E0,3.947291565E-1,9.566606140E0,9.654575060E0
1.424952508E1,1.458866272E0,7.439529419E-2,9.875264282E0,9.982718573E0
1.425954408E1,1.495689697E0,-4.894821167E-2,1.007869125E1,1.018918549E1
1.426956408E1,1.592687988E0,-7.798782349E-2,1.033645523E1,1.045873051E1
1.427958308E1,1.628164215E0,-6.361770630E-2,1.047357010E1,1.059955832E1
1.428960308E1,1.763931885E0,5.538482666E-3,1.044647644E1,1.059435493E1
1.429962208E1,1.757046204E0,1.004411316E-1,1.036744080E1,1.051575620E1
1.430964217E1,1.733096008E0,2.433938599E-1,1.013467484E1,1.028467289E1
1.431966117E1,1.644779663E0,4.254153442E-1,9.863139496E0,1.000838644E1
1.432968017E1,1.534908142E0,6.815327454E-1,9.622739410E0,9.768190398E0
1.433970017E1,1.450783081E0,9.818083191E-1,9.459728394E0,9.620560296E0
1.434971917E1,1.338067474E0,1.254541168E0,9.353150024E0,9.531301773E0
1.435973917E1,1.147513733E0,1.588496704E0,9.190588074E0,9.397181422E0
1.436975817E1,9.737251282E-1,1.969753876E0,9.124425659E0,9.385265823E0
1.437977717E1,7.303312683E-1,2.253114624E0,9.316476288E0,9.612837234E0
1.438979717E1,6.084846497E-1,2.594404907E0,9.368717651E0,9.740331659E0
1.439981617E1,4.218228149E-1,2.787802734E0,9.410630493E0,9.823937340E0
1.440983617E1,2.436932373E-1,3.022215271E0,9.372759247E0,9.850979009E0
1.441985517E1,1.035845947E-1,3.160827026E0,9.474397888E0,9.988281764E0
1.442987417E1,-2.424957275E-2,3.231330414E0,9.397308197E0,9.937378207E0
1.443989417E1,-8.996292114E-2,3.259471893E0,9.353449402E0,9.905516951E0
1.444991317E1,-3.225791931E-1,3.282523956E0,9.395811310E0,9.957926041E0
1.445993317E1,-5.337899780E-1,3.454216919E0,9.506580963E0,1.012875253E1
1.446995217E1,-7.237449646E-1,3.575614471E0,9.443262634E0,1.012343987E1
1.447997117E1,-9.044192505E-1,3.733087006E0,9.255852356E0,1.002121328E1
1.448999117E1,-1.028361511E0,3.801345062E0,9.336085510E0,1.013263265E1
1.450001017E1,-1.269360352E0,3.937112732E0,9.186396790E0,1.007482101E1
1.451003017E1,-1.562450867E0,4.242178345E0,8.976832581E0,1.005091304E1
1.452004917E1,-1.766626282E0,4.373455353E0,8.987759857E0,1.015026637E1
1.453006917E1,-2.013013916E0,4.383783875E0,9.142687683E0,1.033723968E1
1.454008817E1,-2.074835358E0,4.245621185E0,9.436227264E0,1.055332298E1
1.455010717E1,-1.937271423E0,3.824097748E0,9.867779846E0,1.075870918E1
1.456012717E1,-1.869163055E0,3.433110809E0,1.020592667E1,1.092890477E1
1.457014617E1,-1.855391693E0,3.033591614E0,1.042342438E1,1.101330705E1
1.458016617E1,-1.745071106E0,2.512225800E0,1.063822769E1,1.106925653E1
1.459018517E1,-1.683249664E0,2.129920807E0,1.070079758E1,1.103978989E1
1.460020417E1,-1.656455383E0,2.042801971E0,1.082339264E1,1.113834425E1
1.461022417E1,-1.584155731E0,1.963616638E0,1.064376617E1,1.093869727E1
1.462024317E1,-1.547332306E0,1.800904999E0,1.039198975E1,1.065978175E1
1.463026317E1,-1.588945770E0,1.763782196E0,1.006866211E1,1.034473939E1
1.464028217E1,-1.713935852E0,1.770069122E0,9.706265717E0,1.001410580E1
1.465030217E1,-1.932182007E0,1.821412354E0,9.255702667E0,9.629065486E0
1.466032117E1,-2.080972595E0,1.954186249E0,8.954678650E0,9.398699940E0
1.467034017E1,-2.276915131E0,2.190245361E0,8.696465607E0,9.252568903E0
1.468036017E1,-2.431693268E0,2.416874084E0,8.581654358E0,9.241168974E0
1.469037917E1,-2.517764282E0,2.504891052E0,8.563841400E0,9.271083847E0
1.470039917E1,-2.605930939E0,2.533182220E0,8.567284241E0,9.306247766E0
1.471041817E1,-2.511926422E0,2.515069885E0,8.634344788E0,9.337411889E0
1.472043717E1,-2.451152802E0,2.329904938E0,8.624914398E0,9.264219096E0
1.473045717E1,-2.414628754E0,2.199226685E0,8.673413544E0,9.267962696E0
1.474047617E1,-2.315983887E0,2.201172638E0,8.734336853E0,9.300407658E0
1.475049617E1,-2.183509369E0,2.213447113E0,8.760532379E0,9.295912481E0
1.476051517E1,-2.044149170E0,2.279160461E0,8.767717438E0,9.286871772E0
1.477053417E1,-1.888772278E0,2.373314667E0,8.855285339E0,9.360350510E0
1.478055417E1,-1.771715698E0,2.454445953E0,8.816515961E0,9.321707737E0
1.479057317E1,-1.684746552E0,2.521506500E0,8.727301483E0,9.239164310E0
1.480059317E1,-1.566492462E0,2.535577240E0,8.719966736E0,9.215252056E0
1.481061217E1,-1.476978607E0,2.547552338E0,8.591384125E0,9.082035559E0
1.482063217E1,-1.450034637E0,2.664010162E0,8.339308319E0,8.873759848E0
1.483065117E1,-1.382824402E0,2.755619659E0,8.128696289E0,8.693753297E0
1.484067017E1,-1.437011719E0,2.795586548E0,7.894882507E0,8.497615938E0
1.485069017E1,-1.468745728E0,2.878813477E0,7.723039856E0,8.371984571E0
1.486070917E1,-1.547332306E0,2.951711884E0,7.599247284E0,8.297915376E0
1.487072917E1,-1.582060089E0,3.023113403E0,7.567513275E0,8.301167746E0
1.488074817E1,-1.573677521E0,3.063229980E0,7.685917053E0,8.422182603E0
1.489076717E1,-1.522034912E0,3.128793640E0,7.792046356E0,8.533576409E0
1.490078717E1,-1.423390045E0,3.233126678E0,7.984546051E0,8.731100903E0
1.491080617E1,-1.300944672E0,3.348836060E0,8.189469910E0,8.942850630E0
1.492082617E1,-1.195414124E0,3.576512604E0,8.256231079E0,9.076662876E0
1.493084517E1,-1.110241241E0,3.718866577E0,8.212671661E0,9.083533456E0
1.494086517E1,-1.024768982E0,3.827390900E0,8.187823334E0,9.096126841E0
1.495088417E1,-1.055006104E0,3.981121216E0,8.189020844E0,9.166374768E0
1.496090317E1,-1.003513184E0,4.114194489E0,8.253386993E0,9.276423441E0
1.497092317E1,-9.020242310E-1,4.171225891E0,8.384364624E0,9.407993585E0
1.498094217E1,-8.325686646E-1,4.171824646E0,8.605604553E0,9.599672973E0
1.499096217E1,-6.024971008E-1,4.139342194E0,8.888366547E0,9.823452368E0
1.500098117E1,-4.465214539E-1,4.076023865E0,9.112600250E0,9.992639055E0
1.501100017E1,-2.618055725E-1,4.102369080E0,9.341324615E0,1.020579834E1
1.502102017E1,-9.310638428E-2,3.956871643E0,9.630373535E0,1.041199291E1
1.503103917E1,-4.116439819E-2,3.797752533E0,9.838889923E0,1.054648632E1
1.504105917E1,-8.756790161E-2,3.670666809E0,1.012135254E1,1.076676554E1
1.505107817E1,-1.243913269E-1,3.527564392E0,1.033795212E1,1.092393875E1
1.506109717E1,-2.115101624E-1,3.416195984E0,1.043150757E1,1.097868306E1
1.507111717E1,-3.411405945E-1,3.436403961E0,1.059212357E1,1.114084066E1
1.508113617E1,-2.633024597E-1,3.547023926E0,1.085452789E1,1.142241142E1
1.509115617E1,-3.329077148E-1,3.776047668E0,1.111169312E1,1.174048923E1
1.510117517E1,-3.552113342E-1,4.028572540E0,1.144849274E1,1.214181032E1
1.511119517E1,-3.601510620E-1,4.027524719E0,1.185399948E1,1.252469432E1
1.512121417E1,-3.836521912E-1,3.946692810E0,1.224827957E1,1.287415728E1
1.513123317E1,-2.784210205E-1,3.600911865E0,1.266890488E1,1.317365687E1
1.514125317E1,-2.565664673E-1,3.037633209E0,1.297711395E1,1.333036115E1
1.515127217E1,-4.468208313E-1,2.714455261E0,1.306827438E1,1.335468875E1
1.516129217E1,-5.367837524E-1,2.224673767E0,1.308593765E1,1.328454269E1
1.517131117E1,-4.923262024E-1,1.461560669E0,1.307560913E1,1.316624847E1
1.518133017E1,-5.093907166E-1,1.093027039E0,1.281350418E1,1.287012340E1
1.519135017E1,-4.960684204E-1,9.226812744E-1,1.245919098E1,1.250315418E1
1.520136917E1,-4.167333984E-1,8.096662903E-1,1.196731384E1,1.200190930E1
1.521138917E1,-2.820135498E-1,9.404942322E-1,1.138592285E1,1.142818009E1
1.522140817E1,-1.655557251E-1,1.144370270E0,1.080228653E1,1.086399495E1
1.523142717E1,-4.909790039E-2,1.174308014E0,1.025637177E1,1.032349610E1
1.524144717E1,-3.188369751E-2,1.337468719E0,9.834249573E0,9.924832684E0
1.525146617E1,-1.001417542E-1,1.536554718E0,9.414223022E0,9.539319886E0
1.526148617E1,-2.113604736E-1,1.655557251E0,9.024283905E0,9.177322216E0
1.527150517E1,-3.698808289E-1,1.685045929E0,8.677006073E0,8.846842714E0
1.528152517E1,-5.465135193E-1,1.609303436E0,8.390801239E0,8.561196179E0
1.529154417E1,-6.668632507E-1,1.549278259E0,8.193511505E0,8.365321303E0
1.530156317E1,-6.545887756E-1,1.517095184E0,8.128995667E0,8.295217587E0
1.531158254E1,-6.153703308E-1,1.488354950E0,8.061935120E0,8.221233422E0
1.532160154E1,-4.067042542E-1,1.486708374E0,7.989635468E0,8.136951828E0
1.533162154E1,-1.056802368E-1,1.512005768E0,7.990383911E0,8.132869408E0
1.534164054E1,7.394622803E-2,1.540895691E0,7.910599823E0,8.059616438E0
1.535165954E1,2.561174011E-1,1.566642151E0,7.865992584E0,8.024574947E0
1.536167954E1,3.591032410E-1,1.560355225E0,7.787106628E0,7.950012151E0
1.537169854E1,3.882925415E-1,1.609752502E0,7.704179077E0,7.880130041E0
1.538171854E1,3.281176758E-1,1.722617798E0,7.615413666E0,7.814703999E0
1.539173754E1,2.140548706E-1,1.844614105E0,7.427254944E0,7.655882489E0
1.540175654E1,1.261875916E-1,2.078128510E0,7.314988403E0,7.605497798E0
1.541177654E1,-7.110214233E-2,2.282603302E0,7.169940033E0,7.524850392E0
1.542179554E1,-2.267784119E-1,2.498005371E0,7.045548706E0,7.478717527E0
1.543181554E1,-3.962260437E-1,2.788700867E0,7.034322052E0,7.577303896E0
1.544183454E1,-5.339396667E-1,3.072360992E0,7.084467773E0,7.740424876E0
1.545185454E1,-5.724096680E-1,3.322341156E0,7.237898712E0,7.984533884E0
1.546187354E1,-6.194119263E-1,3.580853577E0,7.413184204E0,8.255996821E0
1.547189254E1,-6.780899048E-1,3.841311951E0,7.652386780E0,8.589208744E0
1.548191254E1,-7.858657837E-1,4.136348419E0,7.860454102E0,8.917045585E0
1.549193154E1,-8.485853577E-1,4.357139282E0,8.086783447E0,9.225010914E0
1.550195154E1,-8.150550842E-1,4.388873291E0,8.436605988E0,9.544780990E0
1.551197054E1,-7.927514648E-1,4.259093170E0,8.781189423E0,9.791711658E0
1.552198954E1,-8.509803772E-1,4.090843048E0,9.029972076E0,9.949852268E0
1.553200954E1,-8.238867188E-1,3.988755341E0,9.417965240E0,1.026094673E1
1.554202854E1,-8.701405334E-1,3.820505219E0,9.680519257E0,1.044346005E1
1.555204854E1,-9.363029480E-1,3.714824982E0,9.871971130E0,1.058925880E1
1.556206754E1,-9.611512756E-1,3.623065796E0,1.002091141E1,1.069902252E1
1.557208654E1,-1.040186920E0,3.494183807E0,1.009366013E1,1.073188166E1
1.558210654E1,-1.110690308E0,3.450025635E0,1.022119492E1,1.084477456E1
1.559212554E1,-1.161434784E0,3.477268982E0,1.030726593E1,1.093983827E1
1.560214554E1,-1.235231323E0,3.547622681E0,1.033780243E1,1.099916279E1
1.561216454E1,-1.289867706E0,3.589685211E0,1.042117905E1,1.109732271E1
1.562218454E1,-1.390907593E0,3.761827240E0,1.058748322E1,1.132169461E1
1.563220354E1,-1.456620941E0,3.883823547E0,1.078911392E1,1.155901419E1
1.564222254E1,-1.464554443E0,3.745660858E0,1.109762238E1,1.180390263E1
1.565224254E1,-1.396745453E0,3.608246613E0,1.147483795E1,1.210959320E1
1.566226154E1,-1.287622375E0,3.310964813E0,1.190908493E1,1.242766121E1
1.567228154E1,-1.073417816E0,2.806364136E0,1.230965195E1,1.267104718E1
1.568230054E1,-7.167095947E-1,2.074236603E0,1.260513748E1,1.279474975E1
1.569231954E1,-1.960922241E-1,1.160536652E0,1.270363266E1,1.275803983E1
1.570233954E1,2.439926147E-1,4.153862000E-1,1.279868500E1,1.280774827E1
1.571235854E1,4.450245667E-1,2.829116821E-2,1.254451355E1,1.255243671E1
1.572237854E1,6.403683472E-1,-1.648072815E-1,1.207733505E1,1.209542290E1
1.573239754E1,7.482939148E-1,-1.221459961E-1,1.147379013E1,1.149881400E1
1.574241754E1,7.583230591E-1,5.014572144E-2,1.099508560E1,1.102131915E1
1.575243654E1,7.262896729E-1,3.995191956E-1,1.054572006E1,1.057824768E1
1.576245554E1,6.770420837E-1,9.223818970E-1,1.005309448E1,1.011799797E1
1.577247554E1,7.110214233E-1,1.426683197E0,9.685159607E0,9.815461936E0
1.578249454E1,8.678952026E-1,1.737137604E0,9.417216797E0,9.615345097E0
1.579251454E1,9.539662170E-1,1.863474884E0,9.208999786E0,9.443954005E0
1.580253354E1,1.039887543E0,1.785037994E0,9.212442627E0,9.441230105E0
1.581255254E1,1.034798126E0,1.575174408E0,9.360784149E0,9.548626156E0
1.582257254E1,9.744735718E-1,1.300645294E0,9.487420807E0,9.625613253E0
1.583259154E1,8.663983154E-1,9.279203796E-1,9.524094543E0,9.608332797E0
1.584261154E1,8.559201050E-1,6.140231323E-1,9.480535126E0,9.538876763E0
1.585263054E1,8.120613098E-1,4.649331665E-1,9.371561737E0,9.418162019E0
1.586264954E1,8.165519714E-1,5.468128967E-1,9.140142975E0,9.192821932E0
1.587266954E1,8.681945801E-1,8.167016602E-1,8.799750824E0,8.880111373E0
1.588268854E1,8.343649292E-1,1.212328949E0,8.404273224E0,8.532157684E0
1.589270854E1,7.056326294E-1,1.654509430E0,8.020171967E0,8.219396403E0
1.590272754E1,6.010002136E-1,2.043849792E0,7.732320557E0,8.020430439E0
1.591274654E1,5.131329346E-1,2.352208557E0,7.470814362E0,7.849156498E0
1.592276654E1,3.706292725E-1,2.652484131E0,7.221432953E0,7.702086212E0
1.593278554E1,2.300715637E-1,2.786006470E0,7.122488708E0,7.651444986E0
1.594280554E1,1.076261902E-1,2.886297913E0,7.138056335E0,7.700269300E0
1.595282454E1,3.188369751E-2,2.971770172E0,7.269033966E0,7.853106986E0
1.596284454E1,4.071533203E-2,2.908451843E0,7.475903778E0,8.021838141E0
1.597286354E1,4.116439819E-2,2.870879974E0,7.685917053E0,8.204691785E0
1.598288254E1,1.448986816E-1,2.853366394E0,7.931107178E0,8.430015212E0
1.599290254E1,3.245251465E-1,2.758763123E0,8.225544891E0,8.681916799E0
1.600292154E1,4.707710266E-1,2.588117981E0,8.548423462E0,8.944021675E0
1.601294154E1,5.764512634E-1,2.490221558E0,8.975784760E0,9.332642258E0
1.602296054E1,6.170169067E-1,2.365680542E0,9.410331116E0,9.722730378E0
1.603297954E1,7.345225525E-1,2.310445404E0,9.765392761E0,1.006183766E1
1.604299954E1,7.273374939E-1,2.328707428E0,9.995763702E0,1.028917830E1
1.605301854E1,7.150630188E-1,2.368075562E0,1.005578888E1,1.035557758E1
1.606303854E1,6.827302551E-1,2.313439178E0,1.003872437E1,1.032444228E1
1.607305754E1,6.463558960E-1,2.347867584E0,1.008393036E1,1.037380883E1
1.608307654E1,5.282514954E-1,2.442321167E0,1.008991791E1,1.039473067E1
1.609309654E1,4.843927002E-1,2.542762299E0,1.000474503E1,1.033417628E1
1.610311554E1,5.510041809E-1,2.501298523E0,9.989925842E0,1.031303633E1
1.611313554E1,6.777905273E-1,2.445764008E0,9.973759460E0,1.029160043E1
1.612315454E1,8.487350464E-1,2.508333893E0,9.932295685E0,1.027923089E1
1.613317454E1,1.032552795E0,2.599644012E0,9.909093933E0,1.029633220E1
1.614319354E1,1.127006378E0,2.924767914E0,9.869276733E0,1.035504872E1
1.615321254E1,1.221459961E0,3.275638275E0,9.785451050E0,1.039118967E1
1.616323254E1,1.412163391E0,3.192261658E0,9.924511871E0,1.052048838E1
1.617325154E1,1.585353241E0,3.232378235E0,1.015847534E1,1.077758021E1
1.618327154E1,1.801653442E0,3.374432831E0,1.042312500E1,1.110289543E1
1.619329054E1,2.027084656E0,3.335064697E0,1.062266006E1,1.131691811E1
1.620330954E1,2.199526062E0,3.096460876E0,1.084704346E1,1.149279499E1
1.621332954E1,2.426454163E0,2.609373779E0,1.092368408E1,1.149014296E1
1.622334854E1,2.495310974E0,2.235750732E0,1.102771774E1,1.152543781E1
1.623336854E1,2.485730896E0,1.999691620E0,1.099313965E1,1.144669140E1
1.624338754E1,2.439626770E0,1.671573944E0,1.093910202E1,1.133180882E1
1.625340654E1,2.454895020E0,1.518442383E0,1.088686066E1,1.126303297E1
1.626342654E1,2.437531128E0,1.458417206E0,1.069391190E1,1.106473183E1
1.627344554E1,2.471510468E0,1.464554443E0,1.055305481E1,1.093710426E1
1.628346554E1,2.459984436E0,1.592987366E0,1.041938278E1,1.082370869E1
1.629348454E1,2.489922180E0,1.795815582E0,1.030606842E1,1.075359067E1
1.630350454E1,2.570155334E0,1.949545898E0,1.021610550E1,1.071332064E1
1.631352383E1,2.752176819E0,1.992057495E0,1.014590149E1,1.069963024E1
1.632354283E1,2.867137756E0,1.977687378E0,1.003947281E1,1.062651121E1
1.633356283E1,2.935844879E0,1.959724731E0,9.890382843E0,1.050139890E1
1.634358183E1,2.900817719E0,1.972597961E0,9.682764587E0,1.029863176E1
1.635360183E1,2.826422424E0,1.971999207E0,9.391021271E0,1.000343566E1
1.636362083E1,2.671644287E0,2.032473450E0,9.172625427E0,9.767583568E0
1.637363983E1,2.460433502E0,2.169438629E0,8.862021332E0,9.449635923E0
1.638365983E1,2.341131592E0,2.345322876E0,8.546926575E0,9.166863716E0
1.639367883E1,2.237546997E0,2.511627045E0,8.321645050E0,8.975782045E0
1.640369883E1,2.074985046E0,2.671344910E0,8.119415588E0,8.795826059E0
1.641371783E1,1.985620880E0,2.747386780E0,7.969876556E0,8.660817324E0
1.642373683E1,1.807491302E0,2.855462036E0,7.833510132E0,8.531387298E0
1.643375683E1,1.582060089E0,3.010988617E0,7.611222382E0,8.336646371E0
1.644377583E1,1.322200470E0,3.126997375E0,7.446265411E0,8.183715247E0
1.645379583E1,1.066083069E0,3.257076874E0,7.398365021E0,8.153581290E0
1.646381483E1,1.008602600E0,3.239114227E0,7.410639496E0,8.150258764E0
1.647383483E1,1.021475830E0,3.120560760E0,7.493117981E0,8.180961399E0
1.648385383E1,1.060095520E0,3.106639709E0,7.493716736E0,8.181124820E0
1.649387283E1,1.077309723E0,3.095113678E0,7.638166351E0,8.311552811E0
1.650389283E1,1.068328400E0,3.151097260E0,7.726782074E0,8.412722551E0
1.651391183E1,1.073118439E0,3.186274109E0,7.822732544E0,8.514638591E0
1.652393183E1,1.013542328E0,3.232827301E0,8.055797882E0,8.739240237E0
1.653395083E1,9.529183960E-1,3.270399170E0,8.280780029E0,8.954042779E0
1.654396983E1,8.684939575E-1,3.316503296E0,8.475075989E0,9.142231067E0
1.655398983E1,7.557783508E-1,3.353925476E0,8.680448914E0,9.336498827E0
1.656400883E1,6.836283875E-1,3.266507263E0,8.857231293E0,9.465091846E0
1.657402883E1,7.403604126E-1,3.096760254E0,8.973539429E0,9.521684068E0
1.658404783E1,7.406597900E-1,2.900518341E0,9.069340210E0,9.550629059E0
1.659406683E1,7.517367554E-1,2.728076935E0,9.184899902E0,9.610925977E0
1.660408683E1,8.475375366E-1,2.474803619E0,9.288334808E0,9.649670271E0
1.661410583E1,8.402027893E-1,2.264341278E0,9.380393372E0,9.686328611E0
1.662412583E1,6.734495544E-1,2.265987854E0,9.407337341E0,9.699805725E0
1.663414483E1,4.761598206E-1,2.383194122E0,9.290879517E0,9.603477734E0
1.664416483E1,3.628454590E-1,2.199825439E0,9.351204071E0,9.613319217E0
1.665418383E1,2.689906311E-1,1.792073364E0,9.542356567E0,9.712901305E0
1.666420283E1,2.850073242E-1,1.436412964E0,9.889484711E0,9.997320602E0
1.667422283E1,1.916015625E-1,1.128203888E0,1.048973648E1,1.055197264E1
1.668424183E1,1.199006653E-1,9.867480469E-1,1.089733887E1,1.094257932E1
1.669426183E1,1.390608215E-1,7.696994019E-1,1.120255417E1,1.122982613E1
1.670428083E1,2.418969727E-1,3.686833191E-1,1.121647522E1,1.122513955E1
1.671429983E1,5.602848816E-1,-2.128573608E-1,1.146061752E1,1.147627908E1
1.672431983E1,8.583151245E-1,-7.226971436E-1,1.177391602E1,1.182726064E1
1.673433883E1,9.003776550E-1,-1.087189178E0,1.159892990E1,1.168451262E1
1.674435883E1,9.650431824E-1,-1.220412140E0,1.124536514E1,1.135248657E1
1.675437783E1,9.554631042E-1,-1.068627777E0,1.083701431E1,1.093141136E1
1.676439683E1,8.002359009E-1,-6.225553894E-1,1.041683807E1,1.046606269E1
